<?xml version="1.0" encoding="UTF-8"?>

<Bundle xmlns="http://hl7.org/fhir">
  <id value="EjBundleEntrevista"/>
  <meta>
    <profile value="https://interoperabilidad.minsal.cl/fhir/ig/quirurgico/StructureDefinition/BundleEntrevistaLE"/>
  </meta>
  <type value="transaction"/>
  <entry>
    <fullUrl value="urn:uuid:6c7dae68-552d-44cb-b414-e5024ae8e0a0"/>
    <resource>
      <Encounter>
        <id value="6c7dae68-552d-44cb-b414-e5024ae8e0a0"/>
        <meta>
          <profile value="https://interoperabilidad.minsal.cl/fhir/ig/quirurgico/StructureDefinition/EncounterEntrevistaLE"/>
        </meta>
        <text>
          <status value="extensions"/><div xmlns="http://www.w3.org/1999/xhtml"><a name="Encounter_6c7dae68-552d-44cb-b414-e5024ae8e0a0"> </a><p class="res-header-id"><b>Generated Narrative: Encounter 6c7dae68-552d-44cb-b414-e5024ae8e0a0</b></p><a name="6c7dae68-552d-44cb-b414-e5024ae8e0a0"> </a><a name="hc6c7dae68-552d-44cb-b414-e5024ae8e0a0"> </a><a name="6c7dae68-552d-44cb-b414-e5024ae8e0a0-es-CL"> </a><p><b>En Condicion Cirugia</b>: true</p><p><b>Extension Resultado Evaluación Pre-Qx</b>: <span title="Codes:{https://interoperabilidad.minsal.cl/fhir/ig/quirurgico/CodeSystem/CSResultadoEvaluacionPreQuirurgica 1}">El Paciente requiere intervención quirúrgica.</span></p><p><b>identifier</b>: 1234567890</p><p><b>status</b>: Finished</p><p><b>class</b>: <a href="CodeSystem-CSModalidadAtencionCodigo.html#CSModalidadAtencionCodigo-1">Modalidad Atencion Codigo 1</a>: Presencial</p><p><b>subject</b>: <a href="Patient-22e862c5-6d96-44ec-869c-dba001058cb3.html">Juan Pérez (official) Male, DoB: 1980-01-01 ( RUN: 4444444-4)</a></p><p><b>basedOn</b>: <a href="ServiceRequest-38a17703-0731-4c3f-88fd-1202dc99d7ce.html">ServiceRequest Lung</a></p><h3>Participants</h3><table class="grid"><tr><td style="display: none">-</td><td><b>Individual</b></td></tr><tr><td style="display: none">*</td><td><a href="Bundle-EjBundleEntrevista.html#urn-uuid-0e5c9353-5f8e-4801-b7fc-59395f14344c">Bundle: type = transaction</a></td></tr></table><p><b>appointment</b>: <a href="Appointment-76adaeb4-4885-4aa6-96c1-13b9df9a61d7.html">Appointment: extension = Llamada,; identifier = CITA-20241027-001; status = booked; serviceType = Entrevista Pre Quirúrgica; start = 2024-10-27 10:00:00-0400; end = 2024-10-27 10:30:00-0400; created = 2024-10-25 14:00:00-0400</a></p><p><b>period</b>: 2024-12-02 10:00:00-0400 --&gt; (ongoing)</p></div>
        </text>
        <extension url="https://interoperabilidad.minsal.cl/fhir/ig/quirurgico/StructureDefinition/EnCondicionCirugia">
          <valueBoolean value="true"/>
        </extension>
        <extension url="https://interoperabilidad.minsal.cl/fhir/ig/quirurgico/StructureDefinition/ExtensionResultadoEvaluacionPreQx">
          <valueCodeableConcept>
            <coding>
              <system value="https://interoperabilidad.minsal.cl/fhir/ig/quirurgico/CodeSystem/CSResultadoEvaluacionPreQuirurgica"/>
              <code value="1"/>
              <display value="El Paciente requiere intervención quirúrgica."/>
            </coding>
          </valueCodeableConcept>
        </extension>
        <identifier>
          <value value="1234567890"/>
        </identifier>
        <status value="finished"/>
        <class>
          <system value="https://interoperabilidad.minsal.cl/fhir/ig/quirurgico/CodeSystem/CSModalidadAtencionCodigo"/>
          <code value="1"/>
          <display value="Presencial"/>
        </class>
        <subject>
          <reference value="Patient/22e862c5-6d96-44ec-869c-dba001058cb3"/>
        </subject>
        <basedOn>
          <reference value="ServiceRequest/38a17703-0731-4c3f-88fd-1202dc99d7ce"/>
        </basedOn>
        <participant>
          <individual>
            <reference value="urn:uuid:0e5c9353-5f8e-4801-b7fc-59395f14344c"/>
          </individual>
        </participant>
        <appointment>
          <reference value="Appointment/76adaeb4-4885-4aa6-96c1-13b9df9a61d7"/>
        </appointment>
        <period>
          <start value="2024-12-02T10:00:00-04:00"/>
        </period>
      </Encounter>
    </resource>
    <request>
      <method value="POST"/>
      <url value="Encounter"/>
    </request>
  </entry>
  <entry>
    <fullUrl value="urn:uuid:2d5d9db4-6ade-43c9-b4f5-cc68b9c7f210"/>
    <resource>
      <Practitioner>
        <id value="2d5d9db4-6ade-43c9-b4f5-cc68b9c7f210"/>
        <meta>
          <profile value="https://interoperabilidad.minsal.cl/fhir/ig/quirurgico/StructureDefinition/PractitionerProfesionalLE"/>
        </meta>
        <text>
          <status value="generated"/><div xmlns="http://www.w3.org/1999/xhtml"><a name="Practitioner_2d5d9db4-6ade-43c9-b4f5-cc68b9c7f210"> </a><p class="res-header-id"><b>Generated Narrative: Practitioner 2d5d9db4-6ade-43c9-b4f5-cc68b9c7f210</b></p><a name="2d5d9db4-6ade-43c9-b4f5-cc68b9c7f210"> </a><a name="hc2d5d9db4-6ade-43c9-b4f5-cc68b9c7f210"> </a><a name="2d5d9db4-6ade-43c9-b4f5-cc68b9c7f210-es-CL"> </a><p><b>identifier</b>: RUN/55555555-5 (use: official, )</p><p><b>name</b>: Paula Hernandez (Official)</p><p><b>birthDate</b>: 1990-05-15</p><h3>Qualifications</h3><table class="grid"><tr><td style="display: none">-</td><td><b>Identifier</b></td><td><b>Code</b></td></tr><tr><td style="display: none">*</td><td>cert</td><td><span title="Codes:{https://interoperabilidad.minsal.cl/fhir/ig/quirurgico/CodeSystem/CSTituloProfesional 3}">Enfermera</span></td></tr></table></div>
        </text>
        <identifier>
          <use value="official"/>
          <type>
            <coding>
              <system value="https://hl7chile.cl/fhir/ig/clcore/CodeSystem/CSTipoIdentificador"/>
              <code value="01"/>
            </coding>
          </type>
          <system value="http://www.registrocivil.cl"/>
          <value value="55555555-5"/>
        </identifier>
        <name>
          <use value="official"/>
          <family value="Hernandez">
            <extension url="https://hl7chile.cl/fhir/ig/clcore/StructureDefinition/SegundoApellido">
              <valueString value="Navarro"/>
            </extension>
          </family>
          <given value="Paula"/>
        </name>
        <birthDate value="1990-05-15"/>
        <qualification>
          <identifier>
            <value value="cert"/>
          </identifier>
          <code>
            <coding>
              <system value="https://interoperabilidad.minsal.cl/fhir/ig/quirurgico/CodeSystem/CSTituloProfesional"/>
              <code value="3"/>
              <display value="ENFERMERAS(OS)"/>
            </coding>
            <text value="Enfermera"/>
          </code>
        </qualification>
      </Practitioner>
    </resource>
    <request>
      <method value="POST"/>
      <url value="Practitioner"/>
      <ifNoneExist value="identifier=http://www.registrocivil.cl|55555555-5"/>
    </request>
  </entry>
  <entry>
    <fullUrl value="urn:uuid:0e5c9353-5f8e-4801-b7fc-59395f14344c"/>
    <resource>
      <PractitionerRole>
        <id value="0e5c9353-5f8e-4801-b7fc-59395f14344c"/>
        <meta>
          <profile value="https://interoperabilidad.minsal.cl/fhir/ig/quirurgico/StructureDefinition/PractitionerRoleLE"/>
        </meta>
        <text>
          <status value="generated"/><div xmlns="http://www.w3.org/1999/xhtml"><a name="PractitionerRole_0e5c9353-5f8e-4801-b7fc-59395f14344c"> </a><p class="res-header-id"><b>Generated Narrative: PractitionerRole 0e5c9353-5f8e-4801-b7fc-59395f14344c</b></p><a name="0e5c9353-5f8e-4801-b7fc-59395f14344c"> </a><a name="hc0e5c9353-5f8e-4801-b7fc-59395f14344c"> </a><a name="0e5c9353-5f8e-4801-b7fc-59395f14344c-es-CL"> </a><p><b>practitioner</b>: <a href="Bundle-EjBundleAgendarCirugia.html#urn-uuid-2d5d9db4-6ade-43c9-b4f5-cc68b9c7f210">Bundle: type = transaction</a></p><p><b>organization</b>: <a href="Organization-5491b8d5-e06c-4f89-beb7-75a1989cdc81.html">Organization Hospital Clínico Metropolitano La Florida Dra. Eloísa Díaz Insunza</a></p><p><b>code</b>: <span title="Codes:{https://interoperabilidad.minsal.cl/fhir/ig/quirurgico/CodeSystem/CSPractitionerTipoRolLE entrevistador}">Entrevistador</span></p></div>
        </text>
        <practitioner>
          <reference value="urn:uuid:2d5d9db4-6ade-43c9-b4f5-cc68b9c7f210"/>
        </practitioner>
        <organization>
          <reference value="Organization/5491b8d5-e06c-4f89-beb7-75a1989cdc81"/>
        </organization>
        <code>
          <coding>
            <system value="https://interoperabilidad.minsal.cl/fhir/ig/quirurgico/CodeSystem/CSPractitionerTipoRolLE"/>
            <code value="entrevistador"/>
          </coding>
        </code>
      </PractitionerRole>
    </resource>
    <request>
      <method value="POST"/>
      <url value="PractitionerRole"/>
      <ifNoneExist value="practitioner.identifier=http://www.registrocivil.cl|55555555-5&amp;role=https://interoperabilidad.minsal.cl/fhir/ig/quirurgico/CodeSystem/CSPractitionerTipoRolLE|entrevistador"/>
    </request>
  </entry>
  <entry>
    <fullUrl value="urn:uuid:38a17703-0731-4c3f-88fd-1202dc99d7ce"/>
    <resource>
      <ServiceRequest>
        <id value="38a17703-0731-4c3f-88fd-1202dc99d7ce"/>
        <meta>
          <profile value="https://interoperabilidad.minsal.cl/fhir/ig/quirurgico/StructureDefinition/ServiceRequestCirugiaLE"/>
        </meta>
        <text>
          <status value="extensions"/><div xmlns="http://www.w3.org/1999/xhtml"><a name="ServiceRequest_38a17703-0731-4c3f-88fd-1202dc99d7ce"> </a><p class="res-header-id"><b>Generated Narrative: ServiceRequest 38a17703-0731-4c3f-88fd-1202dc99d7ce</b></p><a name="38a17703-0731-4c3f-88fd-1202dc99d7ce"> </a><a name="hc38a17703-0731-4c3f-88fd-1202dc99d7ce"> </a><a name="38a17703-0731-4c3f-88fd-1202dc99d7ce-es-CL"> </a><p><b>Extension String Fundamento Priorizacion</b>: Paciente con dolor abdominal crónico</p><p><b>Requirió Comite</b>: false</p><p><b>Extension Tipo Priorización</b>: <span title="Codes:{https://interoperabilidad.minsal.cl/fhir/ig/quirurgico/CodeSystem/CSTipoPriorizacion 5}">Usuarios con dos o más años en LE</span></p><p><b>identifier</b>: CIR-2024-0001</p><p><b>status</b>: Active</p><p><b>intent</b>: Order</p><p><b>category</b>: <span title="Codes:{https://interoperabilidad.minsal.cl/fhir/ig/quirurgico/CodeSystem/CSTipoCirugiaPropuesta 1}">Cirugía Mayor Electiva</span></p><p><b>priority</b>: Routine</p><p><b>code</b>: <span title="Codes:{http://snomed.info/sct 39607008}">Lung</span></p><p><b>subject</b>: <a href="Patient-22e862c5-6d96-44ec-869c-dba001058cb3.html">Juan Pérez (official) Male, DoB: 1980-01-01 ( RUN: 4444444-4)</a></p><p><b>encounter</b>: <a href="Encounter-23b7f034-a998-44d7-9be4-0281be8222c0.html">Encounter: identifier = ENC-20241130-001; status = finished; class = Presencial (Modalidad Atencion Codigo#1); type = Nueva; period = 2024-11-30 10:00:00-0400 --&gt; (ongoing)</a></p><p><b>authoredOn</b>: 2024-12-02 10:00:00-0400</p><p><b>requester</b>: <a href="PractitionerRole-96f2b566-b17b-4e4e-ada0-3986748990ee.html">PractitionerRole Indicador</a></p><p><b>reasonReference</b>: <a href="Condition-b97a87f6-060d-48de-9e4d-db93518fd278.html">Condition Other and unspecified ventral hernia without obstruction or gangrene</a></p></div>
        </text>
        <extension url="https://interoperabilidad.minsal.cl/fhir/ig/quirurgico/StructureDefinition/ExtensionStringFundamentoPriorizacion">
          <valueString value="Paciente con dolor abdominal crónico"/>
        </extension>
        <extension url="https://interoperabilidad.minsal.cl/fhir/ig/quirurgico/StructureDefinition/RequirioComite">
          <valueBoolean value="false"/>
        </extension>
        <extension url="https://interoperabilidad.minsal.cl/fhir/ig/quirurgico/StructureDefinition/ExtensionTipoPriorizacion">
          <valueCodeableConcept>
            <coding>
              <system value="https://interoperabilidad.minsal.cl/fhir/ig/quirurgico/CodeSystem/CSTipoPriorizacion"/>
              <code value="5"/>
              <display value="Usuarios con dos o más años en LE"/>
            </coding>
          </valueCodeableConcept>
        </extension>
        <identifier>
          <value value="CIR-2024-0001"/>
        </identifier>
        <status value="active"/>
        <intent value="order"/>
        <category>
          <coding>
            <system value="https://interoperabilidad.minsal.cl/fhir/ig/quirurgico/CodeSystem/CSTipoCirugiaPropuesta"/>
            <code value="1"/>
            <display value="Cirugía Mayor Electiva"/>
          </coding>
        </category>
        <priority value="routine"/>
        <code>
          <coding>
            <system value="http://snomed.info/sct"/>
            <code value="39607008"/>
          </coding>
        </code>
        <subject>
          <reference value="Patient/22e862c5-6d96-44ec-869c-dba001058cb3"/>
        </subject>
        <encounter>
          <reference value="Encounter/23b7f034-a998-44d7-9be4-0281be8222c0"/>
        </encounter>
        <authoredOn value="2024-12-02T10:00:00-04:00"/>
        <requester>
          <reference value="PractitionerRole/96f2b566-b17b-4e4e-ada0-3986748990ee"/>
        </requester>
        <reasonReference>
          <reference value="Condition/b97a87f6-060d-48de-9e4d-db93518fd278"/>
        </reasonReference>
      </ServiceRequest>
    </resource>
    <request>
      <method value="PUT"/>
      <url value="ServiceRequest?identifier=CIR-2024-0001"/>
    </request>
  </entry>
</Bundle>