<?xml version="1.0" encoding="UTF-8"?>

<Bundle xmlns="http://hl7.org/fhir">
  <id value="EjBundleAgendarCirugia"/>
  <meta>
    <profile value="https://interoperabilidad.minsal.cl/fhir/ig/quirurgico/StructureDefinition/BundleAgendarCirugiaLE"/>
  </meta>
  <type value="transaction"/>
  <entry>
    <fullUrl value="urn:uuid:0708a908-fc3a-48ea-90e7-b5cd0e516e30"/>
    <resource>
      <Appointment>
        <id value="0708a908-fc3a-48ea-90e7-b5cd0e516e30"/>
        <meta>
          <profile value="https://interoperabilidad.minsal.cl/fhir/ig/quirurgico/StructureDefinition/AppointmentAgendarLE"/>
        </meta>
        <text>
          <status value="extensions"/><div xmlns="http://www.w3.org/1999/xhtml"><a name="Appointment_0708a908-fc3a-48ea-90e7-b5cd0e516e30"> </a><p class="res-header-id"><b>Generated Narrative: Appointment 0708a908-fc3a-48ea-90e7-b5cd0e516e30</b></p><a name="0708a908-fc3a-48ea-90e7-b5cd0e516e30"> </a><a name="hc0708a908-fc3a-48ea-90e7-b5cd0e516e30"> </a><a name="0708a908-fc3a-48ea-90e7-b5cd0e516e30-es-CL"> </a><p><b>Medio de Contacto</b>: <span title="Codes:{https://interoperabilidad.minsal.cl/fhir/ig/quirurgico/CodeSystem/CSMediodeContacto 3}">Llamada</span></p><blockquote><p><b>Extension ContactadoLE</b></p><ul><li>Contactado: true</li></ul></blockquote><p><b>identifier</b>: CITA-20241130-001</p><p><b>status</b>: Booked</p><p><b>serviceType</b>: <span title="Codes:{https://interoperabilidad.minsal.cl/fhir/ig/quirurgico/CodeSystem/CSTipoServicioAgendamiento 2}">Agendamiento de quirófano</span></p><p><b>appointmentType</b>: <span title="Codes:{https://interoperabilidad.minsal.cl/fhir/ig/quirurgico/CodeSystem/CSTipoAgendamiento 1}">Electivo Normal</span></p><p><b>start</b>: 2024-11-12 10:00:00-0400</p><p><b>end</b>: 2024-11-12 11:00:00-0400</p><p><b>created</b>: 2024-10-27 14:00:00-0400</p><p><b>basedOn</b>: <a href="ServiceRequest-38a17703-0731-4c3f-88fd-1202dc99d7ce.html">ServiceRequest Lung</a></p><blockquote><p><b>participant</b></p><p><b>actor</b>: <a href="Patient-22e862c5-6d96-44ec-869c-dba001058cb3.html">Juan Pérez (official) Male, DoB: 1980-01-01 ( RUN: 4444444-4)</a></p><p><b>status</b>: Accepted</p></blockquote><blockquote><p><b>participant</b></p><p><b>actor</b>: <a href="Bundle-EjBundleAgendarCirugia.html#urn-uuid-ec19af63-cab4-46b5-a5d7-8df62f596e41">Bundle: type = transaction</a></p><p><b>status</b>: Accepted</p></blockquote></div>
        </text>
        <extension url="https://interoperabilidad.minsal.cl/fhir/ig/quirurgico/StructureDefinition/ExtensionMediodeContacto">
          <valueCodeableConcept>
            <coding>
              <system value="https://interoperabilidad.minsal.cl/fhir/ig/quirurgico/CodeSystem/CSMediodeContacto"/>
              <code value="3"/>
              <display value="Llamada"/>
            </coding>
          </valueCodeableConcept>
        </extension>
        <extension url="https://interoperabilidad.minsal.cl/fhir/ig/quirurgico/StructureDefinition/Contactado">
          <extension url="Contactado">
            <valueBoolean value="true"/>
          </extension>
        </extension>
        <identifier>
          <value value="CITA-20241130-001"/>
        </identifier>
        <status value="booked"/>
        <serviceType>
          <coding>
            <system value="https://interoperabilidad.minsal.cl/fhir/ig/quirurgico/CodeSystem/CSTipoServicioAgendamiento"/>
            <code value="2"/>
            <display value="Agendamiento de quirófano"/>
          </coding>
        </serviceType>
        <appointmentType>
          <coding>
            <system value="https://interoperabilidad.minsal.cl/fhir/ig/quirurgico/CodeSystem/CSTipoAgendamiento"/>
            <code value="1"/>
            <display value="Electivo Normal"/>
          </coding>
        </appointmentType>
        <start value="2024-11-12T10:00:00-04:00"/>
        <end value="2024-11-12T11:00:00-04:00"/>
        <created value="2024-10-27T14:00:00-04:00"/>
        <basedOn>
          <reference value="ServiceRequest/38a17703-0731-4c3f-88fd-1202dc99d7ce"/>
        </basedOn>
        <participant>
          <actor>
            <reference value="Patient/22e862c5-6d96-44ec-869c-dba001058cb3"/>
            <type value="Patient"/>
          </actor>
          <status value="accepted"/>
        </participant>
        <participant>
          <actor>
            <reference value="urn:uuid:ec19af63-cab4-46b5-a5d7-8df62f596e41"/>
            <type value="PractitionerRole"/>
          </actor>
          <status value="accepted"/>
        </participant>
      </Appointment>
    </resource>
    <request>
      <method value="POST"/>
      <url value="Appointment"/>
    </request>
  </entry>
  <entry>
    <fullUrl value="urn:uuid:2d5d9db4-6ade-43c9-b4f5-cc68b9c7f210"/>
    <resource>
      <Practitioner>
        <id value="2d5d9db4-6ade-43c9-b4f5-cc68b9c7f210"/>
        <meta>
          <profile value="https://interoperabilidad.minsal.cl/fhir/ig/quirurgico/StructureDefinition/PractitionerProfesionalLE"/>
        </meta>
        <text>
          <status value="generated"/><div xmlns="http://www.w3.org/1999/xhtml"><a name="Practitioner_2d5d9db4-6ade-43c9-b4f5-cc68b9c7f210"> </a><p class="res-header-id"><b>Generated Narrative: Practitioner 2d5d9db4-6ade-43c9-b4f5-cc68b9c7f210</b></p><a name="2d5d9db4-6ade-43c9-b4f5-cc68b9c7f210"> </a><a name="hc2d5d9db4-6ade-43c9-b4f5-cc68b9c7f210"> </a><a name="2d5d9db4-6ade-43c9-b4f5-cc68b9c7f210-es-CL"> </a><p><b>identifier</b>: RUN/55555555-5 (use: official, )</p><p><b>name</b>: Paula Hernandez (Official)</p><p><b>birthDate</b>: 1990-05-15</p><h3>Qualifications</h3><table class="grid"><tr><td style="display: none">-</td><td><b>Identifier</b></td><td><b>Code</b></td></tr><tr><td style="display: none">*</td><td>cert</td><td><span title="Codes:{https://interoperabilidad.minsal.cl/fhir/ig/quirurgico/CodeSystem/CSTituloProfesional 3}">Enfermera</span></td></tr></table></div>
        </text>
        <identifier>
          <use value="official"/>
          <type>
            <coding>
              <system value="https://hl7chile.cl/fhir/ig/clcore/CodeSystem/CSTipoIdentificador"/>
              <code value="01"/>
            </coding>
          </type>
          <system value="http://www.registrocivil.cl"/>
          <value value="55555555-5"/>
        </identifier>
        <name>
          <use value="official"/>
          <family value="Hernandez">
            <extension url="https://hl7chile.cl/fhir/ig/clcore/StructureDefinition/SegundoApellido">
              <valueString value="Navarro"/>
            </extension>
          </family>
          <given value="Paula"/>
        </name>
        <birthDate value="1990-05-15"/>
        <qualification>
          <identifier>
            <value value="cert"/>
          </identifier>
          <code>
            <coding>
              <system value="https://interoperabilidad.minsal.cl/fhir/ig/quirurgico/CodeSystem/CSTituloProfesional"/>
              <code value="3"/>
              <display value="ENFERMERAS(OS)"/>
            </coding>
            <text value="Enfermera"/>
          </code>
        </qualification>
      </Practitioner>
    </resource>
    <request>
      <method value="POST"/>
      <url value="Practitioner"/>
      <ifNoneExist value="identifier=http://www.registrocivil.cl|55555555-5"/>
    </request>
  </entry>
  <entry>
    <fullUrl value="urn:uuid:ec19af63-cab4-46b5-a5d7-8df62f596e41"/>
    <resource>
      <PractitionerRole>
        <id value="ec19af63-cab4-46b5-a5d7-8df62f596e41"/>
        <meta>
          <profile value="https://interoperabilidad.minsal.cl/fhir/ig/quirurgico/StructureDefinition/PractitionerRoleLE"/>
        </meta>
        <text>
          <status value="generated"/><div xmlns="http://www.w3.org/1999/xhtml"><a name="PractitionerRole_ec19af63-cab4-46b5-a5d7-8df62f596e41"> </a><p class="res-header-id"><b>Generated Narrative: PractitionerRole ec19af63-cab4-46b5-a5d7-8df62f596e41</b></p><a name="ec19af63-cab4-46b5-a5d7-8df62f596e41"> </a><a name="hcec19af63-cab4-46b5-a5d7-8df62f596e41"> </a><a name="ec19af63-cab4-46b5-a5d7-8df62f596e41-es-CL"> </a><p><b>practitioner</b>: <a href="Bundle-EjBundleAgendarCirugia.html#urn-uuid-2d5d9db4-6ade-43c9-b4f5-cc68b9c7f210">Bundle: type = transaction</a></p><p><b>organization</b>: <a href="Organization-5491b8d5-e06c-4f89-beb7-75a1989cdc81.html">Organization Hospital Clínico Metropolitano La Florida Dra. Eloísa Díaz Insunza</a></p><p><b>code</b>: <span title="Codes:{https://interoperabilidad.minsal.cl/fhir/ig/quirurgico/CodeSystem/CSPractitionerTipoRolLE planificador}">Planificador</span></p></div>
        </text>
        <practitioner>
          <reference value="urn:uuid:2d5d9db4-6ade-43c9-b4f5-cc68b9c7f210"/>
        </practitioner>
        <organization>
          <reference value="Organization/5491b8d5-e06c-4f89-beb7-75a1989cdc81"/>
        </organization>
        <code>
          <coding>
            <system value="https://interoperabilidad.minsal.cl/fhir/ig/quirurgico/CodeSystem/CSPractitionerTipoRolLE"/>
            <code value="planificador"/>
          </coding>
        </code>
      </PractitionerRole>
    </resource>
    <request>
      <method value="POST"/>
      <url value="PractitionerRole"/>
      <ifNoneExist value="identifier=http://www.registrocivil.cl|33333333-3&amp;code=http://fhir.minsal.cl/CodeSystem/CSPractitionerTipoRolLE|planificador"/>
    </request>
  </entry>
</Bundle>