<?xml version="1.0" encoding="UTF-8"?>

<Bundle xmlns="http://hl7.org/fhir">
  <id value="EjBundleAtender"/>
  <meta>
    <profile value="https://interoperabilidad.minsal.cl/fhir/ig/quirurgico/StructureDefinition/BundleAtenderLE"/>
  </meta>
  <type value="transaction"/>
  <entry>
    <fullUrl value="urn:uuid:50e8af13-6d21-4d92-966d-e7c83cc89fbc"/>
    <resource>
      <Encounter>
        <id value="50e8af13-6d21-4d92-966d-e7c83cc89fbc"/>
        <meta>
          <profile value="https://interoperabilidad.minsal.cl/fhir/ig/quirurgico/StructureDefinition/EncounterAtenderLE"/>
        </meta>
        <text>
          <status value="generated"/><div xmlns="http://www.w3.org/1999/xhtml"><a name="Encounter_50e8af13-6d21-4d92-966d-e7c83cc89fbc"> </a><p class="res-header-id"><b>Generated Narrative: Encounter 50e8af13-6d21-4d92-966d-e7c83cc89fbc</b></p><a name="50e8af13-6d21-4d92-966d-e7c83cc89fbc"> </a><a name="hc50e8af13-6d21-4d92-966d-e7c83cc89fbc"> </a><a name="50e8af13-6d21-4d92-966d-e7c83cc89fbc-es-CL"> </a><p><b>identifier</b>: ENC-20241130-001</p><p><b>status</b>: Finished</p><p><b>class</b>: <a href="CodeSystem-CSModalidadAtencionCodigo.html#CSModalidadAtencionCodigo-1">Modalidad Atencion Codigo 1</a>: Presencial</p><p><b>type</b>: <span title="Codes:{https://interoperabilidad.minsal.cl/fhir/ig/quirurgico/CodeSystem/CSTipoConsulta 1}">Nueva</span></p><p><b>subject</b>: <a href="Bundle-EjBundleAtender.html#urn-uuid-22e862c5-6d96-44ec-869c-dba001058cb3">Bundle: type = transaction</a></p><p><b>basedOn</b>: Identifier: SR-20241115-086</p><h3>Participants</h3><table class="grid"><tr><td style="display: none">-</td><td><b>Individual</b></td></tr><tr><td style="display: none">*</td><td><a href="Bundle-EjBundleAtender.html#urn-uuid-96f2b566-b17b-4e4e-ada0-3986748990ee">Bundle: type = transaction</a></td></tr></table><p><b>period</b>: 2024-11-30 10:00:00-0400 --&gt; (ongoing)</p><h3>Diagnoses</h3><table class="grid"><tr><td style="display: none">-</td><td><b>Condition</b></td></tr><tr><td style="display: none">*</td><td><a href="Bundle-EjBundleAtender.html#urn-uuid-b97a87f6-060d-48de-9e4d-db93518fd278">Bundle: type = transaction</a></td></tr></table></div>
        </text>
        <identifier>
          <value value="ENC-20241130-001"/>
        </identifier>
        <status value="finished"/>
        <class>
          <system value="https://interoperabilidad.minsal.cl/fhir/ig/quirurgico/CodeSystem/CSModalidadAtencionCodigo"/>
          <code value="1"/>
          <display value="Presencial"/>
        </class>
        <type>
          <coding>
            <system value="https://interoperabilidad.minsal.cl/fhir/ig/quirurgico/CodeSystem/CSTipoConsulta"/>
            <code value="1"/>
            <display value="Nueva"/>
          </coding>
        </type>
        <subject>
          <reference value="urn:uuid:22e862c5-6d96-44ec-869c-dba001058cb3"/>
        </subject>
        <basedOn>
          <identifier>
            <value value="SR-20241115-086"/>
          </identifier>
        </basedOn>
        <participant>
          <individual>
            <reference value="urn:uuid:96f2b566-b17b-4e4e-ada0-3986748990ee"/>
          </individual>
        </participant>
        <period>
          <start value="2024-11-30T10:00:00-04:00"/>
        </period>
        <diagnosis>
          <condition>
            <reference value="urn:uuid:b97a87f6-060d-48de-9e4d-db93518fd278"/>
          </condition>
        </diagnosis>
      </Encounter>
    </resource>
    <request>
      <method value="POST"/>
      <url value="Encounter"/>
    </request>
  </entry>
  <entry>
    <fullUrl value="urn:uuid:5491b8d5-e06c-4f89-beb7-75a1989cdc81"/>
    <resource>
      <Organization>
        <id value="5491b8d5-e06c-4f89-beb7-75a1989cdc81"/>
        <meta>
          <profile value="https://interoperabilidad.minsal.cl/fhir/ig/quirurgico/StructureDefinition/OrganizationLE"/>
        </meta>
        <text>
          <status value="generated"/><div xmlns="http://www.w3.org/1999/xhtml"><a name="Organization_5491b8d5-e06c-4f89-beb7-75a1989cdc81"> </a><p class="res-header-id"><b>Generated Narrative: Organization 5491b8d5-e06c-4f89-beb7-75a1989cdc81</b></p><a name="5491b8d5-e06c-4f89-beb7-75a1989cdc81"> </a><a name="hc5491b8d5-e06c-4f89-beb7-75a1989cdc81"> </a><a name="5491b8d5-e06c-4f89-beb7-75a1989cdc81-es-CL"> </a><p><b>identifier</b>: <code>http://deis.minsal.cl/establecimientos</code>/114105</p><p><b>active</b>: true</p><p><b>name</b>: Hospital Clínico Metropolitano La Florida Dra. Eloísa Díaz Insunza</p></div>
        </text>
        <identifier>
          <system value="http://deis.minsal.cl/establecimientos"/>
          <value value="114105"/>
        </identifier>
        <active value="true"/>
        <name value="Hospital Clínico Metropolitano La Florida Dra. Eloísa Díaz Insunza"/>
      </Organization>
    </resource>
    <request>
      <method value="POST"/>
      <url value="Organization"/>
      <ifNoneExist value="identifier=http://deis.minsal.cl/establecimientos|114105"/>
    </request>
  </entry>
  <entry>
    <fullUrl value="urn:uuid:fbb0e12c-95ec-43f7-bff1-73009b307cb5"/>
    <resource>
      <Practitioner>
        <id value="fbb0e12c-95ec-43f7-bff1-73009b307cb5"/>
        <meta>
          <profile value="https://interoperabilidad.minsal.cl/fhir/ig/quirurgico/StructureDefinition/PractitionerProfesionalLE"/>
        </meta>
        <text>
          <status value="extensions"/><div xmlns="http://www.w3.org/1999/xhtml"><a name="Practitioner_fbb0e12c-95ec-43f7-bff1-73009b307cb5"> </a><p class="res-header-id"><b>Generated Narrative: Practitioner fbb0e12c-95ec-43f7-bff1-73009b307cb5</b></p><a name="fbb0e12c-95ec-43f7-bff1-73009b307cb5"> </a><a name="hcfbb0e12c-95ec-43f7-bff1-73009b307cb5"> </a><a name="fbb0e12c-95ec-43f7-bff1-73009b307cb5-es-CL"> </a><p><b>identifier</b>: RUN/33333333-3 (use: official, )</p><p><b>name</b>: Maria Fernandez (Official)</p><p><b>birthDate</b>: 1995-09-12</p><blockquote><p><b>qualification</b></p><p><b>Mención profesional añadida al título profesional</b>: Cirugía Digestiva</p><p><b>identifier</b>: cert</p><p><b>code</b>: <span title="Codes:{https://interoperabilidad.minsal.cl/fhir/ig/quirurgico/CodeSystem/CSTituloProfesional 1}">Médico Cirujano</span></p></blockquote><blockquote><p><b>qualification</b></p><p><b>identifier</b>: esp</p><p><b>code</b>: <span title="Codes:{https://interoperabilidad.minsal.cl/fhir/ig/quirurgico/CodeSystem/CSEspecialidadMed 18}">Gastroenterología Adulto</span></p></blockquote></div>
        </text>
        <identifier>
          <use value="official"/>
          <type>
            <coding>
              <system value="https://hl7chile.cl/fhir/ig/clcore/CodeSystem/CSTipoIdentificador"/>
              <code value="01"/>
            </coding>
          </type>
          <system value="http://www.registrocivil.cl"/>
          <value value="33333333-3"/>
        </identifier>
        <name>
          <use value="official"/>
          <family value="Fernandez">
            <extension url="https://hl7chile.cl/fhir/ig/clcore/StructureDefinition/SegundoApellido">
              <valueString value="Alvarez"/>
            </extension>
          </family>
          <given value="Maria"/>
        </name>
        <birthDate value="1995-09-12"/>
        <qualification>
          <extension url="https://interoperabilidad.minsal.cl/fhir/ig/quirurgico/StructureDefinition/Mencion">
            <valueString value="Cirugía Digestiva"/>
          </extension>
          <identifier>
            <value value="cert"/>
          </identifier>
          <code>
            <coding>
              <system value="https://interoperabilidad.minsal.cl/fhir/ig/quirurgico/CodeSystem/CSTituloProfesional"/>
              <code value="1"/>
              <display value="MÉDICO CIRUJANO"/>
            </coding>
            <text value="Médico Cirujano"/>
          </code>
        </qualification>
        <qualification>
          <identifier>
            <value value="esp"/>
          </identifier>
          <code>
            <coding>
              <system value="https://interoperabilidad.minsal.cl/fhir/ig/quirurgico/CodeSystem/CSEspecialidadMed"/>
              <code value="18"/>
              <display value="GASTROENTEROLOGÍA ADULTO"/>
            </coding>
            <text value="Gastroenterología Adulto"/>
          </code>
        </qualification>
      </Practitioner>
    </resource>
    <request>
      <method value="POST"/>
      <url value="Practitioner"/>
      <ifNoneExist value="identifier=http://www.registrocivil.cl|33333333-3"/>
    </request>
  </entry>
  <entry>
    <fullUrl value="urn:uuid:96f2b566-b17b-4e4e-ada0-3986748990ee"/>
    <resource>
      <PractitionerRole>
        <id value="96f2b566-b17b-4e4e-ada0-3986748990ee"/>
        <meta>
          <profile value="https://interoperabilidad.minsal.cl/fhir/ig/quirurgico/StructureDefinition/PractitionerRoleLE"/>
        </meta>
        <text>
          <status value="generated"/><div xmlns="http://www.w3.org/1999/xhtml"><a name="PractitionerRole_96f2b566-b17b-4e4e-ada0-3986748990ee"> </a><p class="res-header-id"><b>Generated Narrative: PractitionerRole 96f2b566-b17b-4e4e-ada0-3986748990ee</b></p><a name="96f2b566-b17b-4e4e-ada0-3986748990ee"> </a><a name="hc96f2b566-b17b-4e4e-ada0-3986748990ee"> </a><a name="96f2b566-b17b-4e4e-ada0-3986748990ee-es-CL"> </a><p><b>practitioner</b>: <a href="Bundle-EjBundleAtender.html#urn-uuid-fbb0e12c-95ec-43f7-bff1-73009b307cb5">Bundle: type = transaction</a></p><p><b>organization</b>: <a href="Bundle-EjBundleAtender.html#urn-uuid-5491b8d5-e06c-4f89-beb7-75a1989cdc81">Bundle: type = transaction</a></p><p><b>code</b>: <span title="Codes:{https://interoperabilidad.minsal.cl/fhir/ig/quirurgico/CodeSystem/CSPractitionerTipoRolLE indicador}">Indicador</span></p></div>
        </text>
        <practitioner>
          <reference value="urn:uuid:fbb0e12c-95ec-43f7-bff1-73009b307cb5"/>
        </practitioner>
        <organization>
          <reference value="urn:uuid:5491b8d5-e06c-4f89-beb7-75a1989cdc81"/>
        </organization>
        <code>
          <coding>
            <system value="https://interoperabilidad.minsal.cl/fhir/ig/quirurgico/CodeSystem/CSPractitionerTipoRolLE"/>
            <code value="indicador"/>
          </coding>
        </code>
      </PractitionerRole>
    </resource>
    <request>
      <method value="POST"/>
      <url value="PractitionerRole"/>
      <ifNoneExist value="practitioner.identifier=http://www.registrocivil.cl|33333333-3&amp;role=https://interoperabilidad.minsal.cl/fhir/ig/quirurgico/CodeSystem/CSPractitionerTipoRolLE|iniciador"/>
    </request>
  </entry>
  <entry>
    <fullUrl value="urn:uuid:22e862c5-6d96-44ec-869c-dba001058cb3"/>
    <resource>
      <Patient>
        <id value="22e862c5-6d96-44ec-869c-dba001058cb3"/>
        <meta>
          <profile value="https://interoperabilidad.minsal.cl/fhir/ig/quirurgico/StructureDefinition/PatientLE"/>
        </meta>
        <text>
          <status value="generated"/><div xmlns="http://www.w3.org/1999/xhtml"><a name="Patient_22e862c5-6d96-44ec-869c-dba001058cb3"> </a><p class="res-header-id"><b>Generated Narrative: Patient 22e862c5-6d96-44ec-869c-dba001058cb3</b></p><a name="22e862c5-6d96-44ec-869c-dba001058cb3"> </a><a name="hc22e862c5-6d96-44ec-869c-dba001058cb3"> </a><a name="22e862c5-6d96-44ec-869c-dba001058cb3-es-CL"> </a><p style="border: 1px #661aff solid; background-color: #e6e6ff; padding: 10px;">Juan Pérez (official) Male, DoB: 1980-01-01 ( RUN: 4444444-4)</p><hr/><table class="grid"><tr><td style="background-color: #f3f5da" title="Known status of Patient">Deceased:</td><td colspan="3">false</td></tr><tr><td style="background-color: #f3f5da" title="Ways to contact the Patient">Contact Detail</td><td colspan="3">ph: 987654321</td></tr><tr><td style="background-color: #f3f5da" title="Pueblos Originarios Perteneciente"><a href="StructureDefinition-PueblosOriginariosPerteneciente.html">Pueblos Originarios Perteneciente</a></td><td colspan="3">true</td></tr><tr><td style="background-color: #f3f5da" title="Religión"><a href="StructureDefinition-Religion.html">Religión</a></td><td colspan="3"><span title="Codes:{https://interoperabilidad.minsal.cl/fhir/ig/quirurgico/CodeSystem/CSReligion 1}">Católica</span></td></tr><tr><td style="background-color: #f3f5da" title="Esta extensión incluye códigos de paises"><a href="https://hl7chile.cl/fhir/ig/clcore/1.9.1/StructureDefinition-CodigoPaises.html">Codigo de Paises</a></td><td colspan="3"><span title="Codes:{https://hl7chile.cl/fhir/ig/clcore/CodeSystem/CodPais 152}">Chile</span></td></tr><tr><td style="background-color: #f3f5da" title="País de origen del paciente"><a href="StructureDefinition-PaisOrigenMPI.html">País de origen del paciente</a></td><td colspan="3"><span title="Codes:{https://hl7chile.cl/fhir/ig/clcore/CodeSystem/CodPais 152}">Chile</span></td></tr><tr><td style="background-color: #f3f5da" title="Almacenar si el paciente pertenece a algun pueblo originario"><a href="StructureDefinition-PueblosOriginarios.html">Pueblos Originarios</a></td><td colspan="3"><span title="Codes:{https://interoperabilidad.minsal.cl/fhir/ig/quirurgico/CodeSystem/PueblosOriginariosCS 01}">Mapuche</span></td></tr><tr><td style="background-color: #f3f5da" title="Pueblos Afrodescendiente"><a href="StructureDefinition-PueblosAfrodescendiente.html">Pueblos Afrodescendiente</a></td><td colspan="3">false</td></tr><tr><td style="background-color: #f3f5da" title="Identidad De Genero"><a href="https://hl7chile.cl/fhir/ig/clcore/1.9.1/StructureDefinition-IdentidadDeGenero.html">Identidad De Genero</a></td><td colspan="3"><span title="Codes:{https://hl7chile.cl/fhir/ig/clcore/CodeSystem/CSIdentidaddeGenero 1}">Masculino</span></td></tr></table></div>
        </text>
        <extension url="https://interoperabilidad.minsal.cl/fhir/ig/quirurgico/StructureDefinition/PaisOrigenMPI">
          <valueCodeableConcept>
            <coding>
              <system value="https://hl7chile.cl/fhir/ig/clcore/CodeSystem/CodPais"/>
              <code value="152"/>
              <display value="Chile"/>
            </coding>
          </valueCodeableConcept>
        </extension>
        <extension url="https://interoperabilidad.minsal.cl/fhir/ig/quirurgico/StructureDefinition/Religion">
          <valueCodeableConcept>
            <coding>
              <system value="https://interoperabilidad.minsal.cl/fhir/ig/quirurgico/CodeSystem/CSReligion"/>
              <code value="1"/>
              <display value="Católica"/>
            </coding>
          </valueCodeableConcept>
        </extension>
        <extension url="https://interoperabilidad.minsal.cl/fhir/ig/quirurgico/StructureDefinition/PueblosOriginariosPerteneciente">
          <valueBoolean value="true"/>
        </extension>
        <extension url="https://interoperabilidad.minsal.cl/fhir/ig/quirurgico/StructureDefinition/PueblosAfrodescendiente">
          <valueBoolean value="false"/>
        </extension>
        <extension url="https://interoperabilidad.minsal.cl/fhir/ig/quirurgico/StructureDefinition/PueblosOriginarios">
          <valueCodeableConcept>
            <coding>
              <system value="https://interoperabilidad.minsal.cl/fhir/ig/quirurgico/CodeSystem/PueblosOriginariosCS"/>
              <code value="01"/>
              <display value="Mapuche"/>
            </coding>
          </valueCodeableConcept>
        </extension>
        <extension url="https://hl7chile.cl/fhir/ig/clcore/StructureDefinition/CodigoPaises">
          <valueCodeableConcept>
            <coding>
              <system value="https://hl7chile.cl/fhir/ig/clcore/CodeSystem/CodPais"/>
              <code value="152"/>
              <display value="Chile"/>
            </coding>
          </valueCodeableConcept>
        </extension>
        <extension url="https://hl7chile.cl/fhir/ig/clcore/StructureDefinition/IdentidadDeGenero">
          <valueCodeableConcept>
            <coding>
              <system value="https://hl7chile.cl/fhir/ig/clcore/CodeSystem/CSIdentidaddeGenero"/>
              <code value="1"/>
              <display value="Masculino"/>
            </coding>
          </valueCodeableConcept>
        </extension>
        <identifier>
          <type>
            <extension url="https://hl7chile.cl/fhir/ig/clcore/StructureDefinition/CodigoPaises">
              <valueCodeableConcept>
                <coding>
                  <system value="https://hl7chile.cl/fhir/ig/clcore/CodeSystem/CodPais"/>
                  <code value="152"/>
                  <display value="Chile"/>
                </coding>
              </valueCodeableConcept>
            </extension>
            <coding>
              <system value="https://hl7chile.cl/fhir/ig/clcore/CodeSystem/CSTipoIdentificador"/>
              <code value="01"/>
              <display value="RUN"/>
            </coding>
          </type>
          <value value="4444444-4"/>
        </identifier>
        <name>
          <use value="official"/>
          <family value="Pérez">
            <extension url="https://hl7chile.cl/fhir/ig/clcore/StructureDefinition/SegundoApellido">
              <valueString value="Olivares"/>
            </extension>
          </family>
          <given value="Juan"/>
        </name>
        <telecom>
          <system value="phone"/>
          <value value="987654321"/>
        </telecom>
        <gender value="male"/>
        <birthDate value="1980-01-01"/>
        <deceasedBoolean value="false"/>
      </Patient>
    </resource>
    <request>
      <method value="POST"/>
      <url value="Patient"/>
      <ifNoneExist value="identifier=4444444-4"/>
    </request>
  </entry>
  <entry>
    <fullUrl value="urn:uuid:b97a87f6-060d-48de-9e4d-db93518fd278"/>
    <resource>
      <Condition>
        <id value="b97a87f6-060d-48de-9e4d-db93518fd278"/>
        <meta>
          <profile value="https://interoperabilidad.minsal.cl/fhir/ig/quirurgico/StructureDefinition/ConditionDiagnosticoLE"/>
        </meta>
        <text>
          <status value="generated"/><div xmlns="http://www.w3.org/1999/xhtml"><a name="Condition_b97a87f6-060d-48de-9e4d-db93518fd278"> </a><p class="res-header-id"><b>Generated Narrative: Condition b97a87f6-060d-48de-9e4d-db93518fd278</b></p><a name="b97a87f6-060d-48de-9e4d-db93518fd278"> </a><a name="hcb97a87f6-060d-48de-9e4d-db93518fd278"> </a><a name="b97a87f6-060d-48de-9e4d-db93518fd278-es-CL"> </a><p><b>clinicalStatus</b>: <span title="Codes:{http://terminology.hl7.org/CodeSystem/condition-clinical active}">Active</span></p><p><b>verificationStatus</b>: <span title="Codes:{http://terminology.hl7.org/CodeSystem/condition-ver-status confirmed}">Confirmed</span></p><p><b>category</b>: <span title="Codes:{http://terminology.hl7.org/CodeSystem/condition-category encounter-diagnosis}">Encounter Diagnosis</span></p><p><b>code</b>: <span title="Codes:{http://hl7.org/fhir/sid/icd-10 K43.9}">Hernia ventral sin obstrucción ni gangrena</span></p><p><b>subject</b>: <a href="Bundle-EjBundleAtender.html#urn-uuid-22e862c5-6d96-44ec-869c-dba001058cb3">Bundle: type = transaction</a></p><p><b>encounter</b>: <a href="Bundle-EjBundleAtender.html#urn-uuid-50e8af13-6d21-4d92-966d-e7c83cc89fbc">Bundle: type = transaction</a></p></div>
        </text>
        <clinicalStatus>
          <coding>
            <system value="http://terminology.hl7.org/CodeSystem/condition-clinical"/>
            <code value="active"/>
          </coding>
        </clinicalStatus>
        <verificationStatus>
          <coding>
            <system value="http://terminology.hl7.org/CodeSystem/condition-ver-status"/>
            <code value="confirmed"/>
          </coding>
        </verificationStatus>
        <category>
          <coding>
            <system value="http://terminology.hl7.org/CodeSystem/condition-category"/>
            <code value="encounter-diagnosis"/>
          </coding>
        </category>
        <code>
          <coding>
            <system value="http://hl7.org/fhir/sid/icd-10"/>
            <code value="K43.9"/>
          </coding>
          <text value="Hernia ventral sin obstrucción ni gangrena"/>
        </code>
        <subject>
          <reference value="urn:uuid:22e862c5-6d96-44ec-869c-dba001058cb3"/>
        </subject>
        <encounter>
          <reference value="urn:uuid:50e8af13-6d21-4d92-966d-e7c83cc89fbc"/>
        </encounter>
      </Condition>
    </resource>
    <request>
      <method value="POST"/>
      <url value="Condition"/>
    </request>
  </entry>
  <entry>
    <fullUrl value="urn:uuid:38a17703-0731-4c3f-88fd-1202dc99d7ce"/>
    <resource>
      <ServiceRequest>
        <id value="38a17703-0731-4c3f-88fd-1202dc99d7ce"/>
        <meta>
          <profile value="https://interoperabilidad.minsal.cl/fhir/ig/quirurgico/StructureDefinition/ServiceRequestCirugiaLE"/>
        </meta>
        <text>
          <status value="extensions"/><div xmlns="http://www.w3.org/1999/xhtml"><a name="ServiceRequest_38a17703-0731-4c3f-88fd-1202dc99d7ce"> </a><p class="res-header-id"><b>Generated Narrative: ServiceRequest 38a17703-0731-4c3f-88fd-1202dc99d7ce</b></p><a name="38a17703-0731-4c3f-88fd-1202dc99d7ce"> </a><a name="hc38a17703-0731-4c3f-88fd-1202dc99d7ce"> </a><a name="38a17703-0731-4c3f-88fd-1202dc99d7ce-es-CL"> </a><p><b>Extension String Fundamento Priorizacion</b>: Paciente con dolor abdominal crónico</p><p><b>Requirió Comite</b>: false</p><p><b>Extension Tipo Priorización</b>: <span title="Codes:{https://interoperabilidad.minsal.cl/fhir/ig/quirurgico/CodeSystem/CSTipoPriorizacion 5}">Usuarios con dos o más años en LE</span></p><p><b>identifier</b>: CIR-2024-0001</p><p><b>status</b>: Active</p><p><b>intent</b>: Order</p><p><b>category</b>: <span title="Codes:{https://interoperabilidad.minsal.cl/fhir/ig/quirurgico/CodeSystem/CSTipoCirugiaPropuesta 1}">Cirugía Mayor Electiva</span></p><p><b>priority</b>: Routine</p><p><b>code</b>: <span title="Codes:{http://snomed.info/sct 39607008}">Lung</span></p><p><b>subject</b>: <a href="Bundle-EjBundleAtender.html#urn-uuid-22e862c5-6d96-44ec-869c-dba001058cb3">Bundle: type = transaction</a></p><p><b>encounter</b>: <a href="Bundle-EjBundleAtender.html#urn-uuid-50e8af13-6d21-4d92-966d-e7c83cc89fbc">Bundle: type = transaction</a></p><p><b>authoredOn</b>: 2024-12-02 10:00:00-0400</p><p><b>requester</b>: <a href="Bundle-EjBundleAtender.html#urn-uuid-96f2b566-b17b-4e4e-ada0-3986748990ee">Bundle: type = transaction</a></p><p><b>reasonReference</b>: <a href="Bundle-EjBundleAtender.html#urn-uuid-b97a87f6-060d-48de-9e4d-db93518fd278">Bundle: type = transaction</a></p></div>
        </text>
        <extension url="https://interoperabilidad.minsal.cl/fhir/ig/quirurgico/StructureDefinition/ExtensionStringFundamentoPriorizacion">
          <valueString value="Paciente con dolor abdominal crónico"/>
        </extension>
        <extension url="https://interoperabilidad.minsal.cl/fhir/ig/quirurgico/StructureDefinition/RequirioComite">
          <valueBoolean value="false"/>
        </extension>
        <extension url="https://interoperabilidad.minsal.cl/fhir/ig/quirurgico/StructureDefinition/ExtensionTipoPriorizacion">
          <valueCodeableConcept>
            <coding>
              <system value="https://interoperabilidad.minsal.cl/fhir/ig/quirurgico/CodeSystem/CSTipoPriorizacion"/>
              <code value="5"/>
              <display value="Usuarios con dos o más años en LE"/>
            </coding>
          </valueCodeableConcept>
        </extension>
        <identifier>
          <value value="CIR-2024-0001"/>
        </identifier>
        <status value="active"/>
        <intent value="order"/>
        <category>
          <coding>
            <system value="https://interoperabilidad.minsal.cl/fhir/ig/quirurgico/CodeSystem/CSTipoCirugiaPropuesta"/>
            <code value="1"/>
            <display value="Cirugía Mayor Electiva"/>
          </coding>
        </category>
        <priority value="routine"/>
        <code>
          <coding>
            <system value="http://snomed.info/sct"/>
            <code value="39607008"/>
          </coding>
        </code>
        <subject>
          <reference value="urn:uuid:22e862c5-6d96-44ec-869c-dba001058cb3"/>
        </subject>
        <encounter>
          <reference value="urn:uuid:50e8af13-6d21-4d92-966d-e7c83cc89fbc"/>
        </encounter>
        <authoredOn value="2024-12-02T10:00:00-04:00"/>
        <requester>
          <reference value="urn:uuid:96f2b566-b17b-4e4e-ada0-3986748990ee"/>
        </requester>
        <reasonReference>
          <reference value="urn:uuid:b97a87f6-060d-48de-9e4d-db93518fd278"/>
        </reasonReference>
      </ServiceRequest>
    </resource>
    <request>
      <method value="POST"/>
      <url value="ServiceRequest"/>
    </request>
  </entry>
</Bundle>