<?xml version="1.0" encoding="UTF-8"?>

<Bundle xmlns="http://hl7.org/fhir">
  <id value="BundleAgendarEjemplo"/>
  <meta>
    <profile value="https://interoperabilidad.minsal.cl/fhir/ig/tei/StructureDefinition/BundleAgendarLE"/>
  </meta>
  <type value="message"/>
  <timestamp value="2024-02-20T16:00:00-03:00"/>
  <entry>
    <fullUrl value="http://interoperabilidad.minsal.cl/fhir/ig/tei/MessageHeader/MesssageHeaderAgendar"/>
    <resource>
      <MessageHeader>
        <id value="MesssageHeaderAgendar"/>
        <meta>
          <lastUpdated value="2024-02-20T16:00:00-03:00"/>
          <profile value="https://interoperabilidad.minsal.cl/fhir/ig/tei/StructureDefinition/MessageHeaderLE"/>
        </meta>
        <text>
          <status value="generated"/><div xmlns="http://www.w3.org/1999/xhtml"><a name="MessageHeader_MesssageHeaderAgendar"> </a><p class="res-header-id"><b>Generated Narrative: MessageHeader MesssageHeaderAgendar</b></p><a name="MesssageHeaderAgendar"> </a><a name="hcMesssageHeaderAgendar"> </a><a name="MesssageHeaderAgendar-es-CL"> </a><div style="display: inline-block; background-color: #d9e0e7; padding: 6px; margin: 4px; border: 1px solid #8da1b4; border-radius: 5px; line-height: 60%"><p style="margin-bottom: 0px">Last updated: 2024-02-20 16:00:00-0300</p><p style="margin-bottom: 0px">Profile: <a href="StructureDefinition-MessageHeaderLE.html">MessageHeader LE</a></p></div><p><b>event</b>: <a href="CodeSystem-CSTipoEventoLE.html#CSTipoEventoLE-agendar">Tipo de Evento</a> agendar: Agendar</p><p><b>author</b>: <a href="Bundle-BundleAgendarEjemplo.html#PractitionerRole_PractitionerRoleAgendador">Bundle: type = message; timestamp = 2024-02-20 16:00:00-0300</a></p><h3>Sources</h3><table class="grid"><tr><td style="display: none">-</td><td><b>Software</b></td><td><b>Endpoint</b></td></tr><tr><td style="display: none">*</td><td>SISMaule</td><td>llp:10.11.12.13:5432</td></tr></table><p><b>focus</b>: </p><ul><li><a href="Bundle-BundleAgendarEjemplo.html#ServiceRequest_SolicitudInterconsultaEjemplo5">Bundle: type = message; timestamp = 2024-02-20 16:00:00-0300</a></li><li><a href="Appointment-AgendaEjemplo.html">Appointment: extension = No display for Extension ,No display for Extension ; identifier = 123; status = booked; start = 2024-02-22 08:00:00-0300; end = 2024-02-22 08:30:00-0300; created = 2024-02-20 16:00:00-0300</a></li></ul></div>
        </text>
        <eventCoding>
          <system value="https://interoperabilidad.minsal.cl/fhir/ig/tei/CodeSystem/CSTipoEventoLE"/>
          <code value="agendar"/>
          <display value="Agendar"/>
        </eventCoding>
        <author>
          <reference value="PractitionerRole/PractitionerRoleAgendador"/>
        </author>
        <source>
          <software value="SISMaule"/>
          <endpoint value="llp:10.11.12.13:5432"/>
        </source>
        <focus>
          <reference value="ServiceRequest/SolicitudInterconsultaEjemplo5"/>
        </focus>
        <focus>
          <reference value="Appointment/AgendaEjemplo"/>
        </focus>
      </MessageHeader>
    </resource>
  </entry>
  <entry>
    <fullUrl value="http://interoperabilidad.minsal.cl/fhir/ig/tei/ServiceRequest/SolicitudInterconsultaEjemplo5"/>
    <resource>
      <ServiceRequest>
        <id value="SolicitudInterconsultaEjemplo5"/>
        <meta>
          <versionId value="5.0"/>
          <profile value="https://interoperabilidad.minsal.cl/fhir/ig/tei/StructureDefinition/ServiceRequestLE"/>
        </meta>
        <text>
          <status value="generated"/><div xmlns="http://www.w3.org/1999/xhtml"><a name="ServiceRequest_SolicitudInterconsultaEjemplo5"> </a><p class="res-header-id"><b>Generated Narrative: ServiceRequest SolicitudInterconsultaEjemplo5</b></p><a name="SolicitudInterconsultaEjemplo5"> </a><a name="hcSolicitudInterconsultaEjemplo5"> </a><a name="SolicitudInterconsultaEjemplo5-es-CL"> </a><div style="display: inline-block; background-color: #d9e0e7; padding: 6px; margin: 4px; border: 1px solid #8da1b4; border-radius: 5px; line-height: 60%"><p style="margin-bottom: 0px">version: versionId: id (PrimitiveType/ServiceRequest.meta.versionId): element = id -&gt; versionId=id[5.0]</p><p style="margin-bottom: 0px">Profile: <a href="StructureDefinition-ServiceRequestLE.html">ServiceRequest LE</a></p></div><p><b>identifier</b>: 123</p><p><b>status</b>: Draft</p><p><b>intent</b>: Order</p><p><b>category</b>: <span title="Codes:{https://interoperabilidad.minsal.cl/fhir/ig/tei/CodeSystem/CSModalidadAtencionCodigo 1}">Presencial</span></p><p><b>priority</b>: Routine</p><p><b>code</b>: <span title="Codes:{http://snomed.info/sct 103696004}">Interconsulta para atención presencial</span></p><p><b>subject</b>: <a href="Patient-EjemploPatientLE.html">María Josefina Gonzalez (official) Male, DoB: 1974-12-25 ( Rol Único Nacional: 90000000-6 (use: official, ))</a></p><p><b>encounter</b>: <a href="Encounter-EncounterIniciarEjemplo.html">Encounter: extension = No display for Extension ; identifier = http://example.org/sampleencounter-identifier#123 (use: official, ); status = finished; class = Presencial (Modalidad Atencion Codigo#1); period = 2024-01-17 16:00:00+1000 --&gt; 2024-01-17 16:30:00+1000</a></p><p><b>authoredOn</b>: 2024-12-10 09:00:00+0000</p><p><b>requester</b>: <a href="PractitionerRole-PractitionerRoleIniciador.html">PractitionerRole Iniciador</a></p><p><b>performer</b>: <a href="PractitionerRole-PractitionerRoleAtendedor.html">PractitionerRole Atendedor</a></p><p><b>locationCode</b>: <span title="Codes:{https://interoperabilidad.minsal.cl/fhir/ig/tei/CodeSystem/CSDestinoReferenciaCodigo 1}">Nivel Secundario</span></p><p><b>reasonCode</b>: <span title="Codes:{https://interoperabilidad.minsal.cl/fhir/ig/tei/CodeSystem/CSDerivadoParaCodigo 1}">Confirmación</span></p><p><b>supportingInfo</b>: </p><ul><li><a href="Condition-ConditionInicialEjemplo.html">Condition Adrenal antibody detected</a></li><li><a href="AllergyIntolerance-AllergyIntoleranceExample.html">AllergyIntolerance Cashew nuts</a></li><li><a href="Observation-IndiceConmorbilidadEjemplo.html">Observation Estrategia de cuidado integral centrado en las personas</a></li><li><a href="Observation-EjemploObservationCuidador.html">Observation Caregiver for person with age-related complaints, chronic diseases or frailty</a></li><li><a href="Observation-EjemploObservationDiscapacidadLE.html">Observation Disability status</a></li><li><a href="QuestionnaireResponse-MotivoDerivacionEjemplo.html">Response to Questionnaire '-&gt;Motivo de Derivación' about '-&gt;María Josefina Gonzalez (official) Male, DoB: 1974-12-25 ( Rol Único Nacional: 90000000-6 (use: official, ))'</a></li><li><a href="ServiceRequest-EjemploSolicitudExamen.html">ServiceRequest Prostate specific Ag [Mass/volume] in Serum or Plasma</a></li><li><a href="Observation-AnticuerpoAdrenal.html">Observation Adrenal Ab [Units/volume] in Serum</a></li></ul></div>
        </text>
        <extension url="https://interoperabilidad.minsal.cl/fhir/ig/tei/StructureDefinition/ExtensionBoolRequiereExamen">
          <valueBoolean value="true"/>
        </extension>
        <extension url="https://interoperabilidad.minsal.cl/fhir/ig/tei/StructureDefinition/ExtensionBoolAtencionPreferente">
          <valueBoolean value="true"/>
        </extension>
        <extension url="https://interoperabilidad.minsal.cl/fhir/ig/tei/StructureDefinition/ExtensionBoolResolutividadAPS">
          <valueBoolean value="true"/>
        </extension>
        <extension url="https://interoperabilidad.minsal.cl/fhir/ig/tei/StructureDefinition/ExtensionOrigenInterconsulta">
          <valueCodeableConcept>
            <coding>
              <system value="https://interoperabilidad.minsal.cl/fhir/ig/tei/CodeSystem/CSorigenInterconsulta"/>
              <code value="1"/>
              <display value="APS"/>
            </coding>
          </valueCodeableConcept>
        </extension>
        <extension url="https://interoperabilidad.minsal.cl/fhir/ig/tei/StructureDefinition/ExtensionStringFundamentoPriorizacion">
          <valueString value="Paciente es jefe de hogar y cuidador de adulto mayor."/>
        </extension>
        <extension url="https://interoperabilidad.minsal.cl/fhir/ig/tei/StructureDefinition/ExtensionEstadoInterconsultaCodigoLE">
          <valueCodeableConcept>
            <coding>
              <system value="https://interoperabilidad.minsal.cl/fhir/ig/tei/CodeSystem/CSEstadoInterconsulta"/>
              <code value="5"/>
              <display value="En espera de la atención"/>
            </coding>
          </valueCodeableConcept>
        </extension>
        <extension url="https://interoperabilidad.minsal.cl/fhir/ig/tei/StructureDefinition/ExtensionEspecialidadMedicaDestinoCodigo">
          <valueCodeableConcept>
            <coding>
              <system value="https://interoperabilidad.minsal.cl/fhir/ig/tei/CodeSystem/CSEspecialidadMed"/>
              <code value="30"/>
              <display value="MEDICINA INTERNA"/>
            </coding>
          </valueCodeableConcept>
        </extension>
        <extension url="https://interoperabilidad.minsal.cl/fhir/ig/tei/StructureDefinition/ExtensionSubEspecialidadMedicaDestinoCodigo">
          <valueCodeableConcept>
            <coding>
              <system value="https://interoperabilidad.minsal.cl/fhir/ig/tei/CodeSystem/CSEspecialidadMed"/>
              <code value="14"/>
              <display value="ENDOCRINOLOGÍA ADULTO"/>
            </coding>
          </valueCodeableConcept>
        </extension>
        <extension url="https://interoperabilidad.minsal.cl/fhir/ig/tei/StructureDefinition/ExtensionPertinenciaInterconsulta">
          <extension url="EvaluacionPertinencia">
            <valueCodeableConcept>
              <coding>
                <system value="https://interoperabilidad.minsal.cl/fhir/ig/tei/CodeSystem/CSPertinenciaInterconsulta"/>
                <code value="3"/>
                <display value="Pertinente Incompleta"/>
              </coding>
            </valueCodeableConcept>
          </extension>
        </extension>
        <identifier>
          <value value="123"/>
        </identifier>
        <status value="draft"/>
        <intent value="order"/>
        <category>
          <coding>
            <system value="https://interoperabilidad.minsal.cl/fhir/ig/tei/CodeSystem/CSModalidadAtencionCodigo"/>
            <code value="1"/>
            <display value="Presencial"/>
          </coding>
        </category>
        <priority value="routine"/>
        <code>
          <coding>
            <system value="http://snomed.info/sct"/>
            <code value="103696004"/>
          </coding>
          <text value="Interconsulta para atención presencial"/>
        </code>
        <subject>
          <reference value="Patient/EjemploPatientLE"/>
        </subject>
        <encounter>
          <reference value="Encounter/EncounterIniciarEjemplo"/>
        </encounter>
        <authoredOn value="2024-12-10T09:00:00Z"/>
        <requester>
          <reference value="PractitionerRole/PractitionerRoleIniciador"/>
        </requester>
        <performer>
          <reference value="PractitionerRole/PractitionerRoleAtendedor"/>
        </performer>
        <locationCode>
          <coding>
            <system value="https://interoperabilidad.minsal.cl/fhir/ig/tei/CodeSystem/CSDestinoReferenciaCodigo"/>
            <code value="1"/>
            <display value="Nivel Secundario"/>
          </coding>
        </locationCode>
        <reasonCode>
          <coding>
            <system value="https://interoperabilidad.minsal.cl/fhir/ig/tei/CodeSystem/CSDerivadoParaCodigo"/>
            <code value="1"/>
            <display value="Confirmación"/>
          </coding>
        </reasonCode>
        <supportingInfo>
          <reference value="Condition/ConditionInicialEjemplo"/>
        </supportingInfo>
        <supportingInfo>
          <reference value="AllergyIntolerance/AllergyIntoleranceExample"/>
        </supportingInfo>
        <supportingInfo>
          <reference value="Observation/IndiceConmorbilidadEjemplo"/>
        </supportingInfo>
        <supportingInfo>
          <reference value="Observation/EjemploObservationCuidador"/>
        </supportingInfo>
        <supportingInfo>
          <reference value="Observation/EjemploObservationDiscapacidadLE"/>
        </supportingInfo>
        <supportingInfo>
          <reference value="QuestionnaireResponse/MotivoDerivacionEjemplo"/>
        </supportingInfo>
        <supportingInfo>
          <reference value="ServiceRequest/EjemploSolicitudExamen"/>
        </supportingInfo>
        <supportingInfo>
          <reference value="Observation/AnticuerpoAdrenal"/>
        </supportingInfo>
      </ServiceRequest>
    </resource>
  </entry>
  <entry>
    <fullUrl value="http://interoperabilidad.minsal.cl/fhir/ig/tei/Practitioner/ProfesionalAdministrativoEjemplo"/>
    <resource>
      <Practitioner>
        <id value="ProfesionalAdministrativoEjemplo"/>
        <meta>
          <profile value="https://interoperabilidad.minsal.cl/fhir/ig/tei/StructureDefinition/PractitionerAdministrativoLE"/>
        </meta>
        <text>
          <status value="generated"/><div xmlns="http://www.w3.org/1999/xhtml"><a name="Practitioner_ProfesionalAdministrativoEjemplo"> </a><p class="res-header-id"><b>Generated Narrative: Practitioner ProfesionalAdministrativoEjemplo</b></p><a name="ProfesionalAdministrativoEjemplo"> </a><a name="hcProfesionalAdministrativoEjemplo"> </a><a name="ProfesionalAdministrativoEjemplo-es-CL"> </a><p><b>identifier</b>: RUN/90000000-6 (use: official, )</p><p><b>active</b>: true</p><p><b>name</b>: Caludio Parra (Official)</p><p><b>address</b>: null (work)</p><p><b>gender</b>: Male</p><p><b>birthDate</b>: 1980-01-01</p></div>
        </text>
        <identifier>
          <use value="official"/>
          <type>
            <extension url="https://hl7chile.cl/fhir/ig/clcore/StructureDefinition/CodigoPaises">
              <valueCodeableConcept>
                <coding>
                  <system value="https://hl7chile.cl/fhir/ig/clcore/CodeSystem/CodPais"/>
                  <code value="152"/>
                  <display value="Chile"/>
                </coding>
              </valueCodeableConcept>
            </extension>
            <coding>
              <system value="https://hl7chile.cl/fhir/ig/clcore/CodeSystem/CSTipoIdentificador"/>
              <code value="01"/>
              <display value="RUN"/>
            </coding>
          </type>
          <value value="90000000-6"/>
          <assigner>
            <display value="Republica de Chile"/>
          </assigner>
        </identifier>
        <active value="true"/>
        <name>
          <use value="official"/>
          <family value="Parra">
            <extension url="https://hl7chile.cl/fhir/ig/clcore/StructureDefinition/SegundoApellido">
              <valueString value="Sandoval"/>
            </extension>
          </family>
          <given value="Caludio"/>
        </name>
        <address>
          <use value="work"/>
          <state>
            <extension url="https://hl7chile.cl/fhir/ig/clcore/StructureDefinition/RegionesCl">
              <valueCodeableConcept>
                <coding>
                  <system value="https://hl7chile.cl/fhir/ig/clcore/CodeSystem/CSCodRegionCL"/>
                  <code value="13"/>
                  <display value="Metropolitana de Santiago"/>
                </coding>
              </valueCodeableConcept>
            </extension>
          </state>
        </address>
        <gender value="male"/>
        <birthDate value="1980-01-01"/>
      </Practitioner>
    </resource>
  </entry>
  <entry>
    <fullUrl value="http://interoperabilidad.minsal.cl/fhir/ig/tei/Practitioner/PractitionerProfesionalLEAtendedor"/>
    <resource>
      <Practitioner>
        <id value="PractitionerProfesionalLEAtendedor"/>
        <meta>
          <profile value="https://interoperabilidad.minsal.cl/fhir/ig/tei/StructureDefinition/PractitionerProfesionalLE"/>
        </meta>
        <text>
          <status value="generated"/><div xmlns="http://www.w3.org/1999/xhtml"><a name="Practitioner_PractitionerProfesionalLEAtendedor"> </a><p class="res-header-id"><b>Generated Narrative: Practitioner PractitionerProfesionalLEAtendedor</b></p><a name="PractitionerProfesionalLEAtendedor"> </a><a name="hcPractitionerProfesionalLEAtendedor"> </a><a name="PractitionerProfesionalLEAtendedor-es-CL"> </a><p><b>identifier</b>: Rol Único Nacional/19949350-7 (use: official, ), Registro Nacional de Prestadores Individuales/1234543 (use: secondary, )</p><p><b>active</b>: true</p><p><b>name</b>: Gonzalo Gonzalez </p><p><b>gender</b>: Male</p><p><b>birthDate</b>: 1980-01-01</p><blockquote><p><b>qualification</b></p><p><b>identifier</b>: cert</p><p><b>code</b>: <span title="Codes:{https://interoperabilidad.minsal.cl/fhir/ig/tei/CodeSystem/CSTituloProfesional 1}">MÉDICO CIRUJANO</span></p><p><b>period</b>: 2007-11-01 --&gt; (ongoing)</p><p><b>issuer</b>: Universidad de Chile</p></blockquote><blockquote><p><b>qualification</b></p><p><b>identifier</b>: esp</p><p><b>code</b>: <span title="Codes:{https://interoperabilidad.minsal.cl/fhir/ig/tei/CodeSystem/CSEspecialidadMed 30}">MEDICINA INTERNA</span></p><p><b>period</b>: 2010-11-01 --&gt; (ongoing)</p><p><b>issuer</b>: Pontificia Universidad Católica de Chile</p></blockquote><blockquote><p><b>qualification</b></p><p><b>identifier</b>: subesp</p><p><b>code</b>: <span title="Codes:{https://interoperabilidad.minsal.cl/fhir/ig/tei/CodeSystem/CSEspecialidadMed 14}">ENDOCRINOLOGÍA ADULTO</span></p><p><b>period</b>: 2014-11-01 --&gt; (ongoing)</p><p><b>issuer</b>: Universidad de Valparaíso</p></blockquote></div>
        </text>
        <identifier>
          <use value="official"/>
          <type>
            <coding>
              <system value="https://hl7chile.cl/fhir/ig/clcore/CodeSystem/CSTipoIdentificador"/>
              <code value="01"/>
              <display value="RUN"/>
            </coding>
            <text value="Rol Único Nacional"/>
          </type>
          <value value="19949350-7"/>
          <assigner>
            <display value="Republica de Chile"/>
          </assigner>
        </identifier>
        <identifier>
          <use value="secondary"/>
          <type>
            <coding>
              <system value="https://hl7chile.cl/fhir/ig/clcore/CodeSystem/CSTipoIdentificador"/>
              <code value="13"/>
              <display value="RNPI"/>
            </coding>
            <text value="Registro Nacional de Prestadores Individuales"/>
          </type>
          <value value="1234543"/>
          <assigner>
            <display value="Intendencia de prestadores individuales - Superintendencia de Salud"/>
          </assigner>
        </identifier>
        <active value="true"/>
        <name>
          <family value="Gonzalez">
            <extension url="https://hl7chile.cl/fhir/ig/clcore/StructureDefinition/SegundoApellido">
              <valueString value="Gutierrez"/>
            </extension>
          </family>
          <given value="Gonzalo"/>
          <prefix value="Dr"/>
        </name>
        <gender value="male"/>
        <birthDate value="1980-01-01"/>
        <qualification>
          <identifier>
            <value value="cert"/>
          </identifier>
          <code>
            <coding>
              <system value="https://interoperabilidad.minsal.cl/fhir/ig/tei/CodeSystem/CSTituloProfesional"/>
              <code value="1"/>
              <display value="MÉDICO CIRUJANO"/>
            </coding>
            <text value="MÉDICO CIRUJANO"/>
          </code>
          <period>
            <start value="2007-11-01"/>
          </period>
          <issuer>
            <display value="Universidad de Chile"/>
          </issuer>
        </qualification>
        <qualification>
          <identifier>
            <value value="esp"/>
          </identifier>
          <code>
            <coding>
              <system value="https://interoperabilidad.minsal.cl/fhir/ig/tei/CodeSystem/CSEspecialidadMed"/>
              <code value="30"/>
              <display value="MEDICINA INTERNA"/>
            </coding>
            <text value="MEDICINA INTERNA"/>
          </code>
          <period>
            <start value="2010-11-01"/>
          </period>
          <issuer>
            <display value="Pontificia Universidad Católica de Chile"/>
          </issuer>
        </qualification>
        <qualification>
          <identifier>
            <value value="subesp"/>
          </identifier>
          <code>
            <coding>
              <system value="https://interoperabilidad.minsal.cl/fhir/ig/tei/CodeSystem/CSEspecialidadMed"/>
              <code value="14"/>
              <display value="ENDOCRINOLOGÍA ADULTO"/>
            </coding>
            <text value="ENDOCRINOLOGÍA ADULTO"/>
          </code>
          <period>
            <start value="2014-11-01"/>
          </period>
          <issuer>
            <display value="Universidad de Valparaíso"/>
          </issuer>
        </qualification>
      </Practitioner>
    </resource>
  </entry>
  <entry>
    <fullUrl value="http://interoperabilidad.minsal.cl/fhir/ig/tei/PractitionerRole/PractitionerRoleAgendador"/>
    <resource>
      <PractitionerRole>
        <id value="PractitionerRoleAgendador"/>
        <meta>
          <profile value="https://interoperabilidad.minsal.cl/fhir/ig/tei/StructureDefinition/PractitionerRoleLE"/>
        </meta>
        <text>
          <status value="generated"/><div xmlns="http://www.w3.org/1999/xhtml"><a name="PractitionerRole_PractitionerRoleAgendador"> </a><p class="res-header-id"><b>Generated Narrative: PractitionerRole PractitionerRoleAgendador</b></p><a name="PractitionerRoleAgendador"> </a><a name="hcPractitionerRoleAgendador"> </a><a name="PractitionerRoleAgendador-es-CL"> </a><p><b>active</b>: true</p><p><b>practitioner</b>: <a href="Practitioner-ProfesionalAdministrativoEjemplo.html">Practitioner Caludio Parra (official)</a></p><p><b>organization</b>: <a href="Organization-OrganizationLEAtendedor.html">Organization Centro de Referencia de Salud Miraflores</a></p><p><b>code</b>: <span title="Codes:{https://interoperabilidad.minsal.cl/fhir/ig/tei/CodeSystem/CSPractitionerTipoRolLE agendador}">Agendador</span></p></div>
        </text>
        <active value="true"/>
        <practitioner>
          <reference value="Practitioner/ProfesionalAdministrativoEjemplo"/>
        </practitioner>
        <organization>
          <reference value="Organization/OrganizationLEAtendedor"/>
        </organization>
        <code>
          <coding>
            <system value="https://interoperabilidad.minsal.cl/fhir/ig/tei/CodeSystem/CSPractitionerTipoRolLE"/>
            <code value="agendador"/>
            <display value="Agendador"/>
          </coding>
        </code>
      </PractitionerRole>
    </resource>
  </entry>
  <entry>
    <fullUrl value="http://interoperabilidad.minsal.cl/fhir/ig/tei/PractitionerRole/PractitionerRoleAtendedor"/>
    <resource>
      <PractitionerRole>
        <id value="PractitionerRoleAtendedor"/>
        <meta>
          <profile value="https://interoperabilidad.minsal.cl/fhir/ig/tei/StructureDefinition/PractitionerRoleLE"/>
        </meta>
        <text>
          <status value="generated"/><div xmlns="http://www.w3.org/1999/xhtml"><a name="PractitionerRole_PractitionerRoleAtendedor"> </a><p class="res-header-id"><b>Generated Narrative: PractitionerRole PractitionerRoleAtendedor</b></p><a name="PractitionerRoleAtendedor"> </a><a name="hcPractitionerRoleAtendedor"> </a><a name="PractitionerRoleAtendedor-es-CL"> </a><p><b>active</b>: true</p><p><b>practitioner</b>: <a href="Practitioner-PractitionerProfesionalLEAtendedor.html">Practitioner Gonzalo Gonzalez </a></p><p><b>organization</b>: <a href="Organization-OrganizationLEAtendedor.html">Organization Centro de Referencia de Salud Miraflores</a></p><p><b>code</b>: <span title="Codes:{https://interoperabilidad.minsal.cl/fhir/ig/tei/CodeSystem/CSPractitionerTipoRolLE atendedor}">Atendedor</span></p></div>
        </text>
        <active value="true"/>
        <practitioner>
          <reference value="Practitioner/PractitionerProfesionalLEAtendedor"/>
        </practitioner>
        <organization>
          <reference value="Organization/OrganizationLEAtendedor"/>
        </organization>
        <code>
          <coding>
            <system value="https://interoperabilidad.minsal.cl/fhir/ig/tei/CodeSystem/CSPractitionerTipoRolLE"/>
            <code value="atendedor"/>
            <display value="Atendedor"/>
          </coding>
        </code>
      </PractitionerRole>
    </resource>
  </entry>
  <entry>
    <fullUrl value="http://interoperabilidad.minsal.cl/fhir/ig/tei/Organization/OrganizationLEAtendedor"/>
    <resource>
      <Organization>
        <id value="OrganizationLEAtendedor"/>
        <meta>
          <profile value="https://interoperabilidad.minsal.cl/fhir/ig/tei/StructureDefinition/OrganizationLE"/>
        </meta>
        <text>
          <status value="generated"/><div xmlns="http://www.w3.org/1999/xhtml"><a name="Organization_OrganizationLEAtendedor"> </a><p class="res-header-id"><b>Generated Narrative: Organization OrganizationLEAtendedor</b></p><a name="OrganizationLEAtendedor"> </a><a name="hcOrganizationLEAtendedor"> </a><a name="OrganizationLEAtendedor-es-CL"> </a><p><b>identifier</b>: <code>https://interoperabilidad.minsal.cl/fhir/ig/tei/CodeSystem/CSEstablecimientoDestino</code>/121343</p><p><b>name</b>: Centro de Referencia de Salud Miraflores</p></div>
        </text>
        <identifier>
          <system value="https://interoperabilidad.minsal.cl/fhir/ig/tei/CodeSystem/CSEstablecimientoDestino"/>
          <value value="121343"/>
        </identifier>
        <name value="Centro de Referencia de Salud Miraflores"/>
      </Organization>
    </resource>
  </entry>
  <entry>
    <fullUrl value="http://interoperabilidad.minsal.cl/fhir/ig/tei/Appointment/AgendaEjemplo"/>
    <resource>
      <Appointment>
        <id value="AgendaEjemplo"/>
        <meta>
          <profile value="https://interoperabilidad.minsal.cl/fhir/ig/tei/StructureDefinition/AppointmentAgendarLE"/>
        </meta>
        <text>
          <status value="generated"/><div xmlns="http://www.w3.org/1999/xhtml"><a name="Appointment_AgendaEjemplo"> </a><p class="res-header-id"><b>Generated Narrative: Appointment AgendaEjemplo</b></p><a name="AgendaEjemplo"> </a><a name="hcAgendaEjemplo"> </a><a name="AgendaEjemplo-es-CL"> </a><p><b>identifier</b>: 123</p><p><b>status</b>: Booked</p><p><b>start</b>: 2024-02-22 08:00:00-0300</p><p><b>end</b>: 2024-02-22 08:30:00-0300</p><p><b>created</b>: 2024-02-20 16:00:00-0300</p><blockquote><p><b>participant</b></p><p><b>actor</b>: <a href="PractitionerRole-PractitionerRoleAtendedor.html">PractitionerRole Atendedor</a></p><p><b>status</b>: Accepted</p></blockquote><blockquote><p><b>participant</b></p><p><b>actor</b>: <a href="Patient-EjemploPatientLE.html">María Josefina Gonzalez (official) Male, DoB: 1974-12-25 ( Rol Único Nacional: 90000000-6 (use: official, ))</a></p><p><b>status</b>: Accepted</p></blockquote></div>
        </text>
        <extension url="https://interoperabilidad.minsal.cl/fhir/ig/tei/StructureDefinition/ExtensionMediodeContacto">
          <valueCodeableConcept>
            <coding>
              <system value="https://interoperabilidad.minsal.cl/fhir/ig/tei/CodeSystem/CSMediodeContacto"/>
              <code value="3"/>
              <display value="Llamada"/>
            </coding>
          </valueCodeableConcept>
        </extension>
        <extension url="https://interoperabilidad.minsal.cl/fhir/ig/tei/StructureDefinition/Contactado">
          <extension url="Contactado">
            <valueBoolean value="true"/>
          </extension>
        </extension>
        <identifier>
          <value value="123"/>
        </identifier>
        <status value="booked"/>
        <start value="2024-02-22T08:00:00-03:00"/>
        <end value="2024-02-22T08:30:00-03:00"/>
        <created value="2024-02-20T16:00:00-03:00"/>
        <participant>
          <actor>
            <reference value="PractitionerRole/PractitionerRoleAtendedor"/>
            <type value="PractitionerRole"/>
          </actor>
          <status value="accepted"/>
        </participant>
        <participant>
          <actor>
            <reference value="Patient/EjemploPatientLE"/>
            <type value="Patient"/>
          </actor>
          <status value="accepted"/>
        </participant>
      </Appointment>
    </resource>
  </entry>
</Bundle>