<?xml version="1.0" encoding="UTF-8"?>

<Bundle xmlns="http://hl7.org/fhir">
  <id value="BundleTerminarEjemplo"/>
  <meta>
    <profile value="https://interoperabilidad.minsal.cl/fhir/ig/tei/StructureDefinition/BundleTerminarLE"/>
  </meta>
  <type value="message"/>
  <timestamp value="2024-03-22T08:30:00-03:00"/>
  <entry>
    <fullUrl value="http://interoperabilidad.minsal.cl/fhir/ig/tei/MessageHeader/MesssageHeaderTerminar"/>
    <resource>
      <MessageHeader>
        <id value="MesssageHeaderTerminar"/>
        <meta>
          <lastUpdated value="2024-03-22T08:30:00-03:00"/>
          <profile value="https://interoperabilidad.minsal.cl/fhir/ig/tei/StructureDefinition/MessageHeaderLE"/>
        </meta>
        <text>
          <status value="generated"/><div xmlns="http://www.w3.org/1999/xhtml"><a name="MessageHeader_MesssageHeaderTerminar"> </a><p class="res-header-id"><b>Generated Narrative: MessageHeader MesssageHeaderTerminar</b></p><a name="MesssageHeaderTerminar"> </a><a name="hcMesssageHeaderTerminar"> </a><a name="MesssageHeaderTerminar-es-CL"> </a><div style="display: inline-block; background-color: #d9e0e7; padding: 6px; margin: 4px; border: 1px solid #8da1b4; border-radius: 5px; line-height: 60%"><p style="margin-bottom: 0px">Last updated: 2024-03-22 08:30:00-0300</p><p style="margin-bottom: 0px">Profile: <a href="StructureDefinition-MessageHeaderLE.html">MessageHeader LE</a></p></div><p><b>event</b>: <a href="CodeSystem-CSTipoEventoLE.html#CSTipoEventoLE-terminar">Tipo de Evento terminar</a>: Terminar</p><p><b>author</b>: <a href="Bundle-BundleTerminarEjemplo.html#PractitionerRole_PractitionerRoleTerminador">Bundle: type = message; timestamp = 2024-03-22 08:30:00-0300</a></p><h3>Sources</h3><table class="grid"><tr><td style="display: none">-</td><td><b>Software</b></td><td><b>Endpoint</b></td></tr><tr><td style="display: none">*</td><td>SISMaule</td><td>llp:10.11.12.13:5432</td></tr></table><p><b>focus</b>: <a href="ServiceRequest-EjemploSolicitudInterconsultaFinalizada.html">ServiceRequest Patient referral to specialist</a></p></div>
        </text>
        <eventCoding>
          <system value="https://interoperabilidad.minsal.cl/fhir/ig/tei/CodeSystem/CSTipoEventoLE"/>
          <code value="terminar"/>
          <display value="Terminar"/>
        </eventCoding>
        <author>
          <reference value="PractitionerRole/PractitionerRoleTerminador"/>
        </author>
        <source>
          <software value="SISMaule"/>
          <endpoint value="llp:10.11.12.13:5432"/>
        </source>
        <focus>
          <reference value="ServiceRequest/EjemploSolicitudInterconsultaFinalizada"/>
        </focus>
      </MessageHeader>
    </resource>
  </entry>
  <entry>
    <fullUrl value="http://interoperabilidad.minsal.cl/fhir/ig/tei/ServiceRequest/EjemploSolicitudInterconsultaFinalizada"/>
    <resource>
      <ServiceRequest>
        <id value="EjemploSolicitudInterconsultaFinalizada"/>
        <meta>
          <versionId value="7.0"/>
          <profile value="https://interoperabilidad.minsal.cl/fhir/ig/tei/StructureDefinition/ServiceRequestLE"/>
        </meta>
        <text>
          <status value="extensions"/><div xmlns="http://www.w3.org/1999/xhtml"><a name="ServiceRequest_EjemploSolicitudInterconsultaFinalizada"> </a><p class="res-header-id"><b>Generated Narrative: ServiceRequest EjemploSolicitudInterconsultaFinalizada</b></p><a name="EjemploSolicitudInterconsultaFinalizada"> </a><a name="hcEjemploSolicitudInterconsultaFinalizada"> </a><a name="EjemploSolicitudInterconsultaFinalizada-es-CL"> </a><div style="display: inline-block; background-color: #d9e0e7; padding: 6px; margin: 4px; border: 1px solid #8da1b4; border-radius: 5px; line-height: 60%"><p style="margin-bottom: 0px">version: 7.0</p><p style="margin-bottom: 0px">Profile: <a href="StructureDefinition-ServiceRequestLE.html">ServiceRequest LE</a></p></div><p><b>Motivo Cierre Interconsulta</b>: <span title="Codes:{https://interoperabilidad.minsal.cl/fhir/ig/tei/CodeSystem/CSMotivoCierreInterconsulta 2}">Atención Realizada (1)</span></p><p><b>ExtBool Requiere Examen</b>: true</p><p><b>ExtBool Atención Preferente</b>: true</p><p><b>ExtBool Resolutividad APS</b>: true</p><p><b>Origen Interconsulta</b>: <span title="Codes:{https://interoperabilidad.minsal.cl/fhir/ig/tei/CodeSystem/CSorigenInterconsulta 1}">APS</span></p><p><b>Extension String Fundamento Priorizacion</b>: Paciente es jefe de hogar y cuidador de adulto mayor.</p><p><b>Estado Interconsulta Codigo</b>: <span title="Codes:{https://interoperabilidad.minsal.cl/fhir/ig/tei/CodeSystem/CSEstadoInterconsulta 7}">Cerrada</span></p><p><b>Especialidad Médica Destino Código</b>: <span title="Codes:{https://interoperabilidad.minsal.cl/fhir/ig/tei/CodeSystem/CSEspecialidadMed 30}">MEDICINA INTERNA</span></p><p><b>SubEspecialidad Médica Destino Código</b>: <span title="Codes:{https://interoperabilidad.minsal.cl/fhir/ig/tei/CodeSystem/CSEspecialidadMed 14}">ENDOCRINOLOGÍA ADULTO</span></p><blockquote><p><b>Pertinencia Interconsulta</b></p><ul><li>EvaluacionPertinencia: <span title="Codes:{https://interoperabilidad.minsal.cl/fhir/ig/tei/CodeSystem/CSPertinenciaInterconsulta 3}">Pertinente Incompleta</span></li></ul></blockquote><p><b>identifier</b>: 123</p><p><b>status</b>: Draft</p><p><b>intent</b>: Order</p><p><b>category</b>: <span title="Codes:{https://interoperabilidad.minsal.cl/fhir/ig/tei/CodeSystem/CSModalidadAtencionCodigo 1}">Presencial</span></p><p><b>priority</b>: Routine</p><p><b>code</b>: <span title="Codes:{http://snomed.info/sct 103696004}">Interconsulta para atención presencial</span></p><p><b>subject</b>: <a href="Patient-EjemploPatientLE.html">María Josefina Gonzalez (official) Male, DoB: 1974-12-25 ( Rol Único Nacional: 90000000-6 (use: official, ))</a></p><p><b>encounter</b>: <a href="Encounter-EncounterIniciarEjemplo.html">Encounter: extension = Derivación; identifier = http://example.org/sampleencounter-identifier#123 (use: official, ); status = finished; class = Presencial (Modalidad Atencion Codigo#1); period = 2024-01-17 16:00:00+1000 --&gt; 2024-01-17 16:30:00+1000</a></p><p><b>authoredOn</b>: 2024-12-10 09:00:00+0000</p><p><b>requester</b>: <a href="PractitionerRole-PractitionerRoleIniciador.html">PractitionerRole Iniciador</a></p><p><b>performer</b>: <a href="PractitionerRole-PractitionerRoleAtendedor.html">PractitionerRole Atendedor</a></p><p><b>locationCode</b>: <span title="Codes:{https://interoperabilidad.minsal.cl/fhir/ig/tei/CodeSystem/CSDestinoReferenciaCodigo 1}">Nivel Secundario</span></p><p><b>reasonCode</b>: <span title="Codes:{https://interoperabilidad.minsal.cl/fhir/ig/tei/CodeSystem/CSDerivadoParaCodigo 1}">Confirmación</span></p><p><b>supportingInfo</b>: </p><ul><li><a href="Condition-ConditionInicialEjemplo.html">Condition Adrenal antibody detected</a></li><li><a href="AllergyIntolerance-AllergyIntoleranceExample.html">AllergyIntolerance Cashew nuts</a></li><li><a href="Observation-IndiceConmorbilidadEjemplo.html">Observation Estrategia de cuidado integral centrado en las personas</a></li><li><a href="Observation-EjemploObservationCuidador.html">Observation Caregiver for person with age-related complaints, chronic diseases or frailty</a></li><li><a href="Observation-EjemploObservationDiscapacidadLE.html">Observation Disability status</a></li><li><a href="QuestionnaireResponse-MotivoDerivacionEjemplo.html">Response to Questionnaire '-&gt;Motivo de Derivación' about '-&gt;María Josefina Gonzalez (official) Male, DoB: 1974-12-25 ( Rol Único Nacional: 90000000-6 (use: official, ))'</a></li><li><a href="ServiceRequest-EjemploSolicitudExamen.html">ServiceRequest Prostate specific Ag [Mass/volume] in Serum or Plasma</a></li><li><a href="Observation-AnticuerpoAdrenal.html">Observation Adrenal Ab [Units/volume] in Serum</a></li></ul></div>
        </text>
        <extension url="https://interoperabilidad.minsal.cl/fhir/ig/tei/StructureDefinition/ExtensionMotivoCierreInterconsulta">
          <valueCodeableConcept>
            <coding>
              <system value="https://interoperabilidad.minsal.cl/fhir/ig/tei/CodeSystem/CSMotivoCierreInterconsulta"/>
              <code value="2"/>
              <display value="Atención Realizada (1)"/>
            </coding>
          </valueCodeableConcept>
        </extension>
        <extension url="https://interoperabilidad.minsal.cl/fhir/ig/tei/StructureDefinition/ExtensionBoolRequiereExamen">
          <valueBoolean value="true"/>
        </extension>
        <extension url="https://interoperabilidad.minsal.cl/fhir/ig/tei/StructureDefinition/ExtensionBoolAtencionPreferente">
          <valueBoolean value="true"/>
        </extension>
        <extension url="https://interoperabilidad.minsal.cl/fhir/ig/tei/StructureDefinition/ExtensionBoolResolutividadAPS">
          <valueBoolean value="true"/>
        </extension>
        <extension url="https://interoperabilidad.minsal.cl/fhir/ig/tei/StructureDefinition/ExtensionOrigenInterconsulta">
          <valueCodeableConcept>
            <coding>
              <system value="https://interoperabilidad.minsal.cl/fhir/ig/tei/CodeSystem/CSorigenInterconsulta"/>
              <code value="1"/>
              <display value="APS"/>
            </coding>
          </valueCodeableConcept>
        </extension>
        <extension url="https://interoperabilidad.minsal.cl/fhir/ig/tei/StructureDefinition/ExtensionStringFundamentoPriorizacion">
          <valueString value="Paciente es jefe de hogar y cuidador de adulto mayor."/>
        </extension>
        <extension url="https://interoperabilidad.minsal.cl/fhir/ig/tei/StructureDefinition/ExtensionEstadoInterconsultaCodigoLE">
          <valueCodeableConcept>
            <coding>
              <system value="https://interoperabilidad.minsal.cl/fhir/ig/tei/CodeSystem/CSEstadoInterconsulta"/>
              <code value="7"/>
              <display value="Cerrada"/>
            </coding>
          </valueCodeableConcept>
        </extension>
        <extension url="https://interoperabilidad.minsal.cl/fhir/ig/tei/StructureDefinition/ExtensionEspecialidadMedicaDestinoCodigo">
          <valueCodeableConcept>
            <coding>
              <system value="https://interoperabilidad.minsal.cl/fhir/ig/tei/CodeSystem/CSEspecialidadMed"/>
              <code value="30"/>
              <display value="MEDICINA INTERNA"/>
            </coding>
          </valueCodeableConcept>
        </extension>
        <extension url="https://interoperabilidad.minsal.cl/fhir/ig/tei/StructureDefinition/ExtensionSubEspecialidadMedicaDestinoCodigo">
          <valueCodeableConcept>
            <coding>
              <system value="https://interoperabilidad.minsal.cl/fhir/ig/tei/CodeSystem/CSEspecialidadMed"/>
              <code value="14"/>
              <display value="ENDOCRINOLOGÍA ADULTO"/>
            </coding>
          </valueCodeableConcept>
        </extension>
        <extension url="https://interoperabilidad.minsal.cl/fhir/ig/tei/StructureDefinition/ExtensionPertinenciaInterconsulta">
          <extension url="EvaluacionPertinencia">
            <valueCodeableConcept>
              <coding>
                <system value="https://interoperabilidad.minsal.cl/fhir/ig/tei/CodeSystem/CSPertinenciaInterconsulta"/>
                <code value="3"/>
                <display value="Pertinente Incompleta"/>
              </coding>
            </valueCodeableConcept>
          </extension>
        </extension>
        <identifier>
          <value value="123"/>
        </identifier>
        <status value="draft"/>
        <intent value="order"/>
        <category>
          <coding>
            <system value="https://interoperabilidad.minsal.cl/fhir/ig/tei/CodeSystem/CSModalidadAtencionCodigo"/>
            <code value="1"/>
            <display value="Presencial"/>
          </coding>
        </category>
        <priority value="routine"/>
        <code>
          <coding>
            <system value="http://snomed.info/sct"/>
            <code value="103696004"/>
          </coding>
          <text value="Interconsulta para atención presencial"/>
        </code>
        <subject>
          <reference value="Patient/EjemploPatientLE"/>
        </subject>
        <encounter>
          <reference value="Encounter/EncounterIniciarEjemplo"/>
        </encounter>
        <authoredOn value="2024-12-10T09:00:00Z"/>
        <requester>
          <reference value="PractitionerRole/PractitionerRoleIniciador"/>
        </requester>
        <performer>
          <reference value="PractitionerRole/PractitionerRoleAtendedor"/>
        </performer>
        <locationCode>
          <coding>
            <system value="https://interoperabilidad.minsal.cl/fhir/ig/tei/CodeSystem/CSDestinoReferenciaCodigo"/>
            <code value="1"/>
            <display value="Nivel Secundario"/>
          </coding>
        </locationCode>
        <reasonCode>
          <coding>
            <system value="https://interoperabilidad.minsal.cl/fhir/ig/tei/CodeSystem/CSDerivadoParaCodigo"/>
            <code value="1"/>
            <display value="Confirmación"/>
          </coding>
        </reasonCode>
        <supportingInfo>
          <reference value="Condition/ConditionInicialEjemplo"/>
        </supportingInfo>
        <supportingInfo>
          <reference value="AllergyIntolerance/AllergyIntoleranceExample"/>
        </supportingInfo>
        <supportingInfo>
          <reference value="Observation/IndiceConmorbilidadEjemplo"/>
        </supportingInfo>
        <supportingInfo>
          <reference value="Observation/EjemploObservationCuidador"/>
        </supportingInfo>
        <supportingInfo>
          <reference value="Observation/EjemploObservationDiscapacidadLE"/>
        </supportingInfo>
        <supportingInfo>
          <reference value="QuestionnaireResponse/MotivoDerivacionEjemplo"/>
        </supportingInfo>
        <supportingInfo>
          <reference value="ServiceRequest/EjemploSolicitudExamen"/>
        </supportingInfo>
        <supportingInfo>
          <reference value="Observation/AnticuerpoAdrenal"/>
        </supportingInfo>
      </ServiceRequest>
    </resource>
  </entry>
  <entry>
    <fullUrl value="http://interoperabilidad.minsal.cl/fhir/ig/tei/Practitioner/PractitionerProfesionalLETerminador"/>
    <resource>
      <Practitioner>
        <id value="PractitionerProfesionalLETerminador"/>
        <meta>
          <profile value="https://interoperabilidad.minsal.cl/fhir/ig/tei/StructureDefinition/PractitionerProfesionalLE"/>
        </meta>
        <text>
          <status value="generated"/><div xmlns="http://www.w3.org/1999/xhtml"><a name="Practitioner_PractitionerProfesionalLETerminador"> </a><p class="res-header-id"><b>Generated Narrative: Practitioner PractitionerProfesionalLETerminador</b></p><a name="PractitionerProfesionalLETerminador"> </a><a name="hcPractitionerProfesionalLETerminador"> </a><a name="PractitionerProfesionalLETerminador-es-CL"> </a><div style="display: inline-block; background-color: #d9e0e7; padding: 6px; margin: 4px; border: 1px solid #8da1b4; border-radius: 5px; line-height: 60%"><p style="margin-bottom: 0px"/><p style="margin-bottom: 0px">Profile: <a href="StructureDefinition-PractitionerProfesionalLE.html">Prestador Profesional LE</a></p></div><p><b>identifier</b>: Rol Único Nacional/19949350-7 (use: official, ), Registro Nacional de Prestadores Individuales/1234543 (use: secondary, )</p><p><b>active</b>: true</p><p><b>name</b>: Gonzalo Gonzalez </p><p><b>gender</b>: Male</p><p><b>birthDate</b>: 1980-01-01</p><blockquote><p><b>qualification</b></p><p><b>identifier</b>: cert</p><p><b>code</b>: <span title="Codes:{https://interoperabilidad.minsal.cl/fhir/ig/tei/CodeSystem/CSTituloProfesional 1}">MÉDICO CIRUJANO</span></p><p><b>period</b>: 2007-11-01 --&gt; (ongoing)</p><p><b>issuer</b>: Universidad de Chile</p></blockquote><blockquote><p><b>qualification</b></p><p><b>identifier</b>: esp</p><p><b>code</b>: <span title="Codes:{https://interoperabilidad.minsal.cl/fhir/ig/tei/CodeSystem/CSEspecialidadMed 30}">MEDICINA INTERNA</span></p><p><b>period</b>: 2010-11-01 --&gt; (ongoing)</p><p><b>issuer</b>: Pontificia Universidad Católica de Chile</p></blockquote><blockquote><p><b>qualification</b></p><p><b>identifier</b>: subesp</p><p><b>code</b>: <span title="Codes:{https://interoperabilidad.minsal.cl/fhir/ig/tei/CodeSystem/CSEspecialidadMed 14}">ENDOCRINOLOGÍA ADULTO</span></p><p><b>period</b>: 2014-11-01 --&gt; (ongoing)</p><p><b>issuer</b>: Universidad de Valparaíso</p></blockquote></div>
        </text>
        <identifier>
          <use value="official"/>
          <type>
            <coding>
              <system value="https://hl7chile.cl/fhir/ig/clcore/CodeSystem/CSTipoIdentificador"/>
              <code value="01"/>
              <display value="RUN"/>
            </coding>
            <text value="Rol Único Nacional"/>
          </type>
          <value value="19949350-7"/>
          <assigner>
            <display value="Republica de Chile"/>
          </assigner>
        </identifier>
        <identifier>
          <use value="secondary"/>
          <type>
            <coding>
              <system value="https://hl7chile.cl/fhir/ig/clcore/CodeSystem/CSTipoIdentificador"/>
              <code value="13"/>
              <display value="RNPI"/>
            </coding>
            <text value="Registro Nacional de Prestadores Individuales"/>
          </type>
          <value value="1234543"/>
          <assigner>
            <display value="Intendencia de prestadores individuales - Superintendencia de Salud"/>
          </assigner>
        </identifier>
        <active value="true"/>
        <name>
          <family value="Gonzalez">
            <extension url="https://hl7chile.cl/fhir/ig/clcore/StructureDefinition/SegundoApellido">
              <valueString value="Gutierrez"/>
            </extension>
          </family>
          <given value="Gonzalo"/>
          <prefix value="Dr"/>
        </name>
        <gender value="male"/>
        <birthDate value="1980-01-01"/>
        <qualification>
          <identifier>
            <value value="cert"/>
          </identifier>
          <code>
            <coding>
              <system value="https://interoperabilidad.minsal.cl/fhir/ig/tei/CodeSystem/CSTituloProfesional"/>
              <code value="1"/>
              <display value="MÉDICO CIRUJANO"/>
            </coding>
            <text value="MÉDICO CIRUJANO"/>
          </code>
          <period>
            <start value="2007-11-01"/>
          </period>
          <issuer>
            <display value="Universidad de Chile"/>
          </issuer>
        </qualification>
        <qualification>
          <identifier>
            <value value="esp"/>
          </identifier>
          <code>
            <coding>
              <system value="https://interoperabilidad.minsal.cl/fhir/ig/tei/CodeSystem/CSEspecialidadMed"/>
              <code value="30"/>
              <display value="MEDICINA INTERNA"/>
            </coding>
            <text value="MEDICINA INTERNA"/>
          </code>
          <period>
            <start value="2010-11-01"/>
          </period>
          <issuer>
            <display value="Pontificia Universidad Católica de Chile"/>
          </issuer>
        </qualification>
        <qualification>
          <identifier>
            <value value="subesp"/>
          </identifier>
          <code>
            <coding>
              <system value="https://interoperabilidad.minsal.cl/fhir/ig/tei/CodeSystem/CSEspecialidadMed"/>
              <code value="14"/>
              <display value="ENDOCRINOLOGÍA ADULTO"/>
            </coding>
            <text value="ENDOCRINOLOGÍA ADULTO"/>
          </code>
          <period>
            <start value="2014-11-01"/>
          </period>
          <issuer>
            <display value="Universidad de Valparaíso"/>
          </issuer>
        </qualification>
      </Practitioner>
    </resource>
  </entry>
  <entry>
    <fullUrl value="http://interoperabilidad.minsal.cl/fhir/ig/tei/PractitionerRole/PractitionerRoleTerminador"/>
    <resource>
      <PractitionerRole>
        <id value="PractitionerRoleTerminador"/>
        <meta>
          <profile value="https://interoperabilidad.minsal.cl/fhir/ig/tei/StructureDefinition/PractitionerRoleLE"/>
        </meta>
        <text>
          <status value="generated"/><div xmlns="http://www.w3.org/1999/xhtml"><a name="PractitionerRole_PractitionerRoleTerminador"> </a><p class="res-header-id"><b>Generated Narrative: PractitionerRole PractitionerRoleTerminador</b></p><a name="PractitionerRoleTerminador"> </a><a name="hcPractitionerRoleTerminador"> </a><a name="PractitionerRoleTerminador-es-CL"> </a><div style="display: inline-block; background-color: #d9e0e7; padding: 6px; margin: 4px; border: 1px solid #8da1b4; border-radius: 5px; line-height: 60%"><p style="margin-bottom: 0px"/><p style="margin-bottom: 0px">Profile: <a href="StructureDefinition-PractitionerRoleLE.html">PractitionerRole LE</a></p></div><p><b>active</b>: true</p><p><b>practitioner</b>: <a href="Bundle-BundleTerminarEjemplo.html#Practitioner_PractitionerProfesionalLETerminador">Bundle: type = message; timestamp = 2024-03-22 08:30:00-0300</a></p><p><b>organization</b>: <a href="Bundle-BundleTerminarEjemplo.html#Organization_OrganizationLETerminador">Bundle: type = message; timestamp = 2024-03-22 08:30:00-0300</a></p><p><b>code</b>: <span title="Codes:{https://interoperabilidad.minsal.cl/fhir/ig/tei/CodeSystem/CSPractitionerTipoRolLE terminador}">Terminador</span></p></div>
        </text>
        <active value="true"/>
        <practitioner>
          <reference value="Practitioner/PractitionerProfesionalLETerminador"/>
        </practitioner>
        <organization>
          <reference value="Organization/OrganizationLETerminador"/>
        </organization>
        <code>
          <coding>
            <system value="https://interoperabilidad.minsal.cl/fhir/ig/tei/CodeSystem/CSPractitionerTipoRolLE"/>
            <code value="terminador"/>
            <display value="Terminador"/>
          </coding>
        </code>
      </PractitionerRole>
    </resource>
  </entry>
  <entry>
    <fullUrl value="http://interoperabilidad.minsal.cl/fhir/ig/tei/Organization/OrganizationLETerminador"/>
    <resource>
      <Organization>
        <id value="OrganizationLETerminador"/>
        <meta>
          <profile value="https://interoperabilidad.minsal.cl/fhir/ig/tei/StructureDefinition/OrganizationLE"/>
        </meta>
        <text>
          <status value="generated"/><div xmlns="http://www.w3.org/1999/xhtml"><a name="Organization_OrganizationLETerminador"> </a><p class="res-header-id"><b>Generated Narrative: Organization OrganizationLETerminador</b></p><a name="OrganizationLETerminador"> </a><a name="hcOrganizationLETerminador"> </a><a name="OrganizationLETerminador-es-CL"> </a><div style="display: inline-block; background-color: #d9e0e7; padding: 6px; margin: 4px; border: 1px solid #8da1b4; border-radius: 5px; line-height: 60%"><p style="margin-bottom: 0px"/><p style="margin-bottom: 0px">Profile: <a href="StructureDefinition-OrganizationLE.html">Organization LE</a></p></div><p><b>identifier</b>: <code>https://interoperabilidad.minsal.cl/fhir/ig/tei/CodeSystem/CSEstablecimientoDestino</code>/121343</p><p><b>name</b>: Centro de Referencia de Salud Miraflores</p></div>
        </text>
        <identifier>
          <system value="https://interoperabilidad.minsal.cl/fhir/ig/tei/CodeSystem/CSEstablecimientoDestino"/>
          <value value="121343"/>
        </identifier>
        <name value="Centro de Referencia de Salud Miraflores"/>
      </Organization>
    </resource>
  </entry>
</Bundle>