<?xml version="1.0" encoding="UTF-8"?>

<Bundle xmlns="http://hl7.org/fhir">
  <id value="BundleAtenderEjemplo"/>
  <meta>
    <profile value="https://interoperabilidad.minsal.cl/fhir/ig/tei/StructureDefinition/BundleAtenderLE"/>
  </meta>
  <type value="message"/>
  <timestamp value="2024-02-22T08:30:00-03:00"/>
  <entry>
    <fullUrl value="http://interoperabilidad.minsal.cl/fhir/ig/tei/MessageHeader/MesssageHeaderAtender"/>
    <resource>
      <MessageHeader>
        <id value="MesssageHeaderAtender"/>
        <meta>
          <lastUpdated value="2024-02-22T08:30:00-03:00"/>
          <profile value="https://interoperabilidad.minsal.cl/fhir/ig/tei/StructureDefinition/MessageHeaderLE"/>
        </meta>
        <text>
          <status value="generated"/><div xmlns="http://www.w3.org/1999/xhtml"><a name="MessageHeader_MesssageHeaderAtender"> </a><p class="res-header-id"><b>Generated Narrative: CabeceraMensaje MesssageHeaderAtender</b></p><a name="MesssageHeaderAtender"> </a><a name="hcMesssageHeaderAtender"> </a><div style="display: inline-block; background-color: #d9e0e7; padding: 6px; margin: 4px; border: 1px solid #8da1b4; border-radius: 5px; line-height: 60%"><p style="margin-bottom: 0px">Last updated: 2024-02-22 08:30:00-0300</p><p style="margin-bottom: 0px">Profile: <a href="StructureDefinition-MessageHeaderLE.html">MessageHeader LE</a></p></div><p><b>event</b>: <a href="CodeSystem-CSTipoEventoLE.html#CSTipoEventoLE-atender">Tipo de Evento atender</a>: Atender</p><p><b>author</b>: <a href="PractitionerRole-PractitionerRoleAtendedor.html">PractitionerRole Atendedor</a></p><h3>Sources</h3><table class="grid"><tr><td style="display: none">-</td><td><b>Software</b></td><td><b>Endpoint</b></td></tr><tr><td style="display: none">*</td><td>SISMaule</td><td>llp:10.11.12.13:5432</td></tr></table><p><b>focus</b>: </p><ul><li><a href="Bundle-BundleAtenderEjemplo.html#ServiceRequest_SolicitudInterconsultaEjemplo6">Bundle: type = message; timestamp = 2024-02-22 08:30:00-0300</a></li><li><a href="Bundle-BundleAtenderEjemplo.html#Encounter_Atencion">Bundle: type = message; timestamp = 2024-02-22 08:30:00-0300</a></li></ul></div>
        </text>
        <eventCoding>
          <system value="https://interoperabilidad.minsal.cl/fhir/ig/tei/CodeSystem/CSTipoEventoLE"/>
          <code value="atender"/>
          <display value="Atender"/>
        </eventCoding>
        <author>
          <reference value="PractitionerRole/PractitionerRoleAtendedor"/>
        </author>
        <source>
          <software value="SISMaule"/>
          <endpoint value="llp:10.11.12.13:5432"/>
        </source>
        <focus>
          <reference value="ServiceRequest/SolicitudInterconsultaEjemplo6"/>
        </focus>
        <focus>
          <reference value="Encounter/Atencion"/>
        </focus>
      </MessageHeader>
    </resource>
  </entry>
  <entry>
    <fullUrl value="http://interoperabilidad.minsal.cl/fhir/ig/tei/ServiceRequest/SolicitudInterconsultaEjemplo6"/>
    <resource>
      <ServiceRequest>
        <id value="SolicitudInterconsultaEjemplo6"/>
        <meta>
          <versionId value="6.0"/>
          <profile value="https://interoperabilidad.minsal.cl/fhir/ig/tei/StructureDefinition/ServiceRequestLE"/>
        </meta>
        <text>
          <status value="extensions"/><div xmlns="http://www.w3.org/1999/xhtml"><a name="ServiceRequest_SolicitudInterconsultaEjemplo6"> </a><p class="res-header-id"><b>Generated Narrative: PeticiónServicio SolicitudInterconsultaEjemplo6</b></p><a name="SolicitudInterconsultaEjemplo6"> </a><a name="hcSolicitudInterconsultaEjemplo6"> </a><div style="display: inline-block; background-color: #d9e0e7; padding: 6px; margin: 4px; border: 1px solid #8da1b4; border-radius: 5px; line-height: 60%"><p style="margin-bottom: 0px">version: 6.0</p><p style="margin-bottom: 0px">Profile: <a href="StructureDefinition-ServiceRequestLE.html">ServiceRequest LE</a></p></div><p><b>ExtBool Requiere Examen</b>: true</p><p><b>ExtBool Atención Preferente</b>: true</p><p><b>ExtBool Resolutividad APS</b>: true</p><p><b>Origen Interconsulta</b>: <span title="Codes:{https://interoperabilidad.minsal.cl/fhir/ig/tei/CodeSystem/CSorigenInterconsulta 1}">APS</span></p><p><b>Extension String Fundamento Priorizacion</b>: Paciente es jefe de hogar y cuidador de adulto mayor.</p><p><b>Estado Interconsulta Codigo</b>: <span title="Codes:{https://interoperabilidad.minsal.cl/fhir/ig/tei/CodeSystem/CSEstadoInterconsulta 6}">A la espera de cierre</span></p><p><b>Especialidad Médica Destino Código</b>: <span title="Codes:{https://interoperabilidad.minsal.cl/fhir/ig/tei/CodeSystem/CSEspecialidadMed 30}">MEDICINA INTERNA</span></p><p><b>SubEspecialidad Médica Destino Código</b>: <span title="Codes:{https://interoperabilidad.minsal.cl/fhir/ig/tei/CodeSystem/CSEspecialidadMed 14}">ENDOCRINOLOGÍA ADULTO</span></p><blockquote><p><b>Pertinencia Interconsulta</b></p><ul><li>EvaluacionPertinencia: <span title="Codes:{https://interoperabilidad.minsal.cl/fhir/ig/tei/CodeSystem/CSPertinenciaInterconsulta 3}">Pertinente Incompleta</span></li></ul></blockquote><p><b>identifier</b>: 123</p><p><b>status</b>: Draft</p><p><b>intent</b>: Order</p><p><b>category</b>: <span title="Codes:{https://interoperabilidad.minsal.cl/fhir/ig/tei/CodeSystem/CSModalidadAtencionCodigo 1}">Presencial</span></p><p><b>priority</b>: Routine</p><p><b>code</b>: <span title="Codes:{http://snomed.info/sct 103696004}">Interconsulta para atención presencial</span></p><p><b>subject</b>: <a href="Patient-EjemploPatientLE.html">María Josefina Gonzalez (official) Male, DoB: 1974-12-25 ( Rol Único Nacional: 90000000-6 (use: official, ))</a></p><p><b>encounter</b>: <a href="Encounter-EncounterIniciarEjemplo.html">Encounter: extension = Derivación; identifier = http://example.org/sampleencounter-identifier#123 (use: official, ); status = finished; class = Presencial (Modalidad Atencion Codigo#1); period = 2024-01-17 16:00:00+1000 --&gt; 2024-01-17 16:30:00+1000</a></p><p><b>authoredOn</b>: 2024-12-10 09:00:00+0000</p><p><b>requester</b>: <a href="PractitionerRole-PractitionerRoleIniciador.html">PractitionerRole Iniciador</a></p><p><b>performer</b>: <a href="PractitionerRole-PractitionerRoleAtendedor.html">PractitionerRole Atendedor</a></p><p><b>locationCode</b>: <span title="Codes:{https://interoperabilidad.minsal.cl/fhir/ig/tei/CodeSystem/CSDestinoReferenciaCodigo 1}">Nivel Secundario</span></p><p><b>reasonCode</b>: <span title="Codes:{https://interoperabilidad.minsal.cl/fhir/ig/tei/CodeSystem/CSDerivadoParaCodigo 1}">Confirmación</span></p><p><b>supportingInfo</b>: </p><ul><li><a href="Condition-ConditionInicialEjemplo.html">Condition Adrenal antibody detected</a></li><li><a href="AllergyIntolerance-AllergyIntoleranceExample.html">AllergyIntolerance Cashew nuts</a></li><li><a href="Observation-IndiceConmorbilidadEjemplo.html">Observation Estrategia de cuidado integral centrado en las personas</a></li><li><a href="Observation-EjemploObservationCuidador.html">Observation Cuidador de personas con molestias relacionadas con la edad, enfermedades crónicas o fragilidad.: Paciente:Punto temporal:Tipo:Ordinal:</a></li><li><a href="Observation-EjemploObservationDiscapacidadLE.html">Observation Disability status</a></li><li><a href="QuestionnaireResponse-MotivoDerivacionEjemplo.html">Response to Questionnaire '-&gt;Motivo de Derivación' about '-&gt;María Josefina Gonzalez (official) Male, DoB: 1974-12-25 ( Rol Único Nacional: 90000000-6 (use: official, ))'</a></li><li><a href="ServiceRequest-EjemploSolicitudExamen.html">ServiceRequest Ag específico de próstata: Suero o Plasma : Punto temporal: Concentración de masa: Cuantitativo:</a></li><li><a href="Observation-AnticuerpoAdrenal.html">Observation Ab adrenal: Suero : Punto temporal: Concentración arbitraria: Cuantitativo:</a></li></ul></div>
        </text>
        <extension url="https://interoperabilidad.minsal.cl/fhir/ig/tei/StructureDefinition/ExtensionBoolRequiereExamen">
          <valueBoolean value="true"/>
        </extension>
        <extension url="https://interoperabilidad.minsal.cl/fhir/ig/tei/StructureDefinition/ExtensionBoolAtencionPreferente">
          <valueBoolean value="true"/>
        </extension>
        <extension url="https://interoperabilidad.minsal.cl/fhir/ig/tei/StructureDefinition/ExtensionBoolResolutividadAPS">
          <valueBoolean value="true"/>
        </extension>
        <extension url="https://interoperabilidad.minsal.cl/fhir/ig/tei/StructureDefinition/ExtensionOrigenInterconsulta">
          <valueCodeableConcept>
            <coding>
              <system value="https://interoperabilidad.minsal.cl/fhir/ig/tei/CodeSystem/CSorigenInterconsulta"/>
              <code value="1"/>
              <display value="APS"/>
            </coding>
          </valueCodeableConcept>
        </extension>
        <extension url="https://interoperabilidad.minsal.cl/fhir/ig/tei/StructureDefinition/ExtensionStringFundamentoPriorizacion">
          <valueString value="Paciente es jefe de hogar y cuidador de adulto mayor."/>
        </extension>
        <extension url="https://interoperabilidad.minsal.cl/fhir/ig/tei/StructureDefinition/ExtensionEstadoInterconsultaCodigoLE">
          <valueCodeableConcept>
            <coding>
              <system value="https://interoperabilidad.minsal.cl/fhir/ig/tei/CodeSystem/CSEstadoInterconsulta"/>
              <code value="6"/>
              <display value="A la espera de cierre"/>
            </coding>
          </valueCodeableConcept>
        </extension>
        <extension url="https://interoperabilidad.minsal.cl/fhir/ig/tei/StructureDefinition/ExtensionEspecialidadMedicaDestinoCodigo">
          <valueCodeableConcept>
            <coding>
              <system value="https://interoperabilidad.minsal.cl/fhir/ig/tei/CodeSystem/CSEspecialidadMed"/>
              <code value="30"/>
              <display value="MEDICINA INTERNA"/>
            </coding>
          </valueCodeableConcept>
        </extension>
        <extension url="https://interoperabilidad.minsal.cl/fhir/ig/tei/StructureDefinition/ExtensionSubEspecialidadMedicaDestinoCodigo">
          <valueCodeableConcept>
            <coding>
              <system value="https://interoperabilidad.minsal.cl/fhir/ig/tei/CodeSystem/CSEspecialidadMed"/>
              <code value="14"/>
              <display value="ENDOCRINOLOGÍA ADULTO"/>
            </coding>
          </valueCodeableConcept>
        </extension>
        <extension url="https://interoperabilidad.minsal.cl/fhir/ig/tei/StructureDefinition/ExtensionPertinenciaInterconsulta">
          <extension url="EvaluacionPertinencia">
            <valueCodeableConcept>
              <coding>
                <system value="https://interoperabilidad.minsal.cl/fhir/ig/tei/CodeSystem/CSPertinenciaInterconsulta"/>
                <code value="3"/>
                <display value="Pertinente Incompleta"/>
              </coding>
            </valueCodeableConcept>
          </extension>
        </extension>
        <identifier>
          <value value="123"/>
        </identifier>
        <status value="draft"/>
        <intent value="order"/>
        <category>
          <coding>
            <system value="https://interoperabilidad.minsal.cl/fhir/ig/tei/CodeSystem/CSModalidadAtencionCodigo"/>
            <code value="1"/>
            <display value="Presencial"/>
          </coding>
        </category>
        <priority value="routine"/>
        <code>
          <coding>
            <system value="http://snomed.info/sct"/>
            <code value="103696004"/>
          </coding>
          <text value="Interconsulta para atención presencial"/>
        </code>
        <subject>
          <reference value="Patient/EjemploPatientLE"/>
        </subject>
        <encounter>
          <reference value="Encounter/EncounterIniciarEjemplo"/>
        </encounter>
        <authoredOn value="2024-12-10T09:00:00Z"/>
        <requester>
          <reference value="PractitionerRole/PractitionerRoleIniciador"/>
        </requester>
        <performer>
          <reference value="PractitionerRole/PractitionerRoleAtendedor"/>
        </performer>
        <locationCode>
          <coding>
            <system value="https://interoperabilidad.minsal.cl/fhir/ig/tei/CodeSystem/CSDestinoReferenciaCodigo"/>
            <code value="1"/>
            <display value="Nivel Secundario"/>
          </coding>
        </locationCode>
        <reasonCode>
          <coding>
            <system value="https://interoperabilidad.minsal.cl/fhir/ig/tei/CodeSystem/CSDerivadoParaCodigo"/>
            <code value="1"/>
            <display value="Confirmación"/>
          </coding>
        </reasonCode>
        <supportingInfo>
          <reference value="Condition/ConditionInicialEjemplo"/>
        </supportingInfo>
        <supportingInfo>
          <reference value="AllergyIntolerance/AllergyIntoleranceExample"/>
        </supportingInfo>
        <supportingInfo>
          <reference value="Observation/IndiceConmorbilidadEjemplo"/>
        </supportingInfo>
        <supportingInfo>
          <reference value="Observation/EjemploObservationCuidador"/>
        </supportingInfo>
        <supportingInfo>
          <reference value="Observation/EjemploObservationDiscapacidadLE"/>
        </supportingInfo>
        <supportingInfo>
          <reference value="QuestionnaireResponse/MotivoDerivacionEjemplo"/>
        </supportingInfo>
        <supportingInfo>
          <reference value="ServiceRequest/EjemploSolicitudExamen"/>
        </supportingInfo>
        <supportingInfo>
          <reference value="Observation/AnticuerpoAdrenal"/>
        </supportingInfo>
      </ServiceRequest>
    </resource>
  </entry>
  <entry>
    <fullUrl value="http://interoperabilidad.minsal.cl/fhir/ig/tei/Practitioner/PractitionerProfesionalLEAtendedor"/>
    <resource>
      <Practitioner>
        <id value="PractitionerProfesionalLEAtendedor"/>
        <meta>
          <profile value="https://interoperabilidad.minsal.cl/fhir/ig/tei/StructureDefinition/PractitionerProfesionalLE"/>
        </meta>
        <text>
          <status value="generated"/><div xmlns="http://www.w3.org/1999/xhtml"><a name="Practitioner_PractitionerProfesionalLEAtendedor"> </a><p class="res-header-id"><b>Generated Narrative: Practicante / Profesional PractitionerProfesionalLEAtendedor</b></p><a name="PractitionerProfesionalLEAtendedor"> </a><a name="hcPractitionerProfesionalLEAtendedor"> </a><div style="display: inline-block; background-color: #d9e0e7; padding: 6px; margin: 4px; border: 1px solid #8da1b4; border-radius: 5px; line-height: 60%"><p style="margin-bottom: 0px"/><p style="margin-bottom: 0px">Profile: <a href="StructureDefinition-PractitionerProfesionalLE.html">Prestador Profesional LE</a></p></div><p><b>identifier</b>: Rol Único Nacional/19949350-7 (use: official, ), Registro Nacional de Prestadores Individuales/1234543 (use: secondary, )</p><p><b>active</b>: true</p><p><b>name</b>: Gonzalo Gonzalez </p><p><b>gender</b>: Male</p><p><b>birthDate</b>: 1980-01-01</p><blockquote><p><b>qualification</b></p><p><b>identifier</b>: cert</p><p><b>code</b>: <span title="Codes:{https://interoperabilidad.minsal.cl/fhir/ig/tei/CodeSystem/CSTituloProfesional 1}">MÉDICO CIRUJANO</span></p><p><b>period</b>: 2007-11-01 --&gt; (ongoing)</p><p><b>issuer</b>: Universidad de Chile</p></blockquote><blockquote><p><b>qualification</b></p><p><b>identifier</b>: esp</p><p><b>code</b>: <span title="Codes:{https://interoperabilidad.minsal.cl/fhir/ig/tei/CodeSystem/CSEspecialidadMed 30}">MEDICINA INTERNA</span></p><p><b>period</b>: 2010-11-01 --&gt; (ongoing)</p><p><b>issuer</b>: Pontificia Universidad Católica de Chile</p></blockquote><blockquote><p><b>qualification</b></p><p><b>identifier</b>: subesp</p><p><b>code</b>: <span title="Codes:{https://interoperabilidad.minsal.cl/fhir/ig/tei/CodeSystem/CSEspecialidadMed 14}">ENDOCRINOLOGÍA ADULTO</span></p><p><b>period</b>: 2014-11-01 --&gt; (ongoing)</p><p><b>issuer</b>: Universidad de Valparaíso</p></blockquote></div>
        </text>
        <identifier>
          <use value="official"/>
          <type>
            <coding>
              <system value="https://hl7chile.cl/fhir/ig/clcore/CodeSystem/CSTipoIdentificador"/>
              <code value="01"/>
              <display value="RUN"/>
            </coding>
            <text value="Rol Único Nacional"/>
          </type>
          <value value="19949350-7"/>
          <assigner>
            <display value="Republica de Chile"/>
          </assigner>
        </identifier>
        <identifier>
          <use value="secondary"/>
          <type>
            <coding>
              <system value="https://hl7chile.cl/fhir/ig/clcore/CodeSystem/CSTipoIdentificador"/>
              <code value="13"/>
              <display value="RNPI"/>
            </coding>
            <text value="Registro Nacional de Prestadores Individuales"/>
          </type>
          <value value="1234543"/>
          <assigner>
            <display value="Intendencia de prestadores individuales - Superintendencia de Salud"/>
          </assigner>
        </identifier>
        <active value="true"/>
        <name>
          <family value="Gonzalez">
            <extension url="https://hl7chile.cl/fhir/ig/clcore/StructureDefinition/SegundoApellido">
              <valueString value="Gutierrez"/>
            </extension>
          </family>
          <given value="Gonzalo"/>
          <prefix value="Dr"/>
        </name>
        <gender value="male"/>
        <birthDate value="1980-01-01"/>
        <qualification>
          <identifier>
            <value value="cert"/>
          </identifier>
          <code>
            <coding>
              <system value="https://interoperabilidad.minsal.cl/fhir/ig/tei/CodeSystem/CSTituloProfesional"/>
              <code value="1"/>
              <display value="MÉDICO CIRUJANO"/>
            </coding>
            <text value="MÉDICO CIRUJANO"/>
          </code>
          <period>
            <start value="2007-11-01"/>
          </period>
          <issuer>
            <display value="Universidad de Chile"/>
          </issuer>
        </qualification>
        <qualification>
          <identifier>
            <value value="esp"/>
          </identifier>
          <code>
            <coding>
              <system value="https://interoperabilidad.minsal.cl/fhir/ig/tei/CodeSystem/CSEspecialidadMed"/>
              <code value="30"/>
              <display value="MEDICINA INTERNA"/>
            </coding>
            <text value="MEDICINA INTERNA"/>
          </code>
          <period>
            <start value="2010-11-01"/>
          </period>
          <issuer>
            <display value="Pontificia Universidad Católica de Chile"/>
          </issuer>
        </qualification>
        <qualification>
          <identifier>
            <value value="subesp"/>
          </identifier>
          <code>
            <coding>
              <system value="https://interoperabilidad.minsal.cl/fhir/ig/tei/CodeSystem/CSEspecialidadMed"/>
              <code value="14"/>
              <display value="ENDOCRINOLOGÍA ADULTO"/>
            </coding>
            <text value="ENDOCRINOLOGÍA ADULTO"/>
          </code>
          <period>
            <start value="2014-11-01"/>
          </period>
          <issuer>
            <display value="Universidad de Valparaíso"/>
          </issuer>
        </qualification>
      </Practitioner>
    </resource>
  </entry>
  <entry>
    <fullUrl value="http://interoperabilidad.minsal.cl/fhir/ig/tei/PractitionerRole/PractitionerRoleAtendedor"/>
    <resource>
      <PractitionerRole>
        <id value="PractitionerRoleAtendedor"/>
        <meta>
          <versionId value="2.0"/>
          <profile value="https://interoperabilidad.minsal.cl/fhir/ig/tei/StructureDefinition/PractitionerRoleLE"/>
        </meta>
        <text>
          <status value="generated"/><div xmlns="http://www.w3.org/1999/xhtml"><a name="PractitionerRole_PractitionerRoleAtendedor"> </a><p class="res-header-id"><b>Generated Narrative: RolProfesional PractitionerRoleAtendedor</b></p><a name="PractitionerRoleAtendedor"> </a><a name="hcPractitionerRoleAtendedor"> </a><div style="display: inline-block; background-color: #d9e0e7; padding: 6px; margin: 4px; border: 1px solid #8da1b4; border-radius: 5px; line-height: 60%"><p style="margin-bottom: 0px">version: 2.0</p><p style="margin-bottom: 0px">Profile: <a href="StructureDefinition-PractitionerRoleLE.html">PractitionerRole LE</a></p></div><p><b>active</b>: true</p><p><b>practitioner</b>: <a href="Practitioner-PractitionerProfesionalLEAtendedor.html">Practitioner Gonzalo Gonzalez </a></p><p><b>organization</b>: <a href="Organization-OrganizationLEAtendedor.html">Organization Centro de Referencia de Salud Miraflores</a></p><p><b>code</b>: <span title="Codes:{https://interoperabilidad.minsal.cl/fhir/ig/tei/CodeSystem/CSPractitionerTipoRolLE atendedor}">Atendedor</span></p></div>
        </text>
        <active value="true"/>
        <practitioner>
          <reference value="Practitioner/PractitionerProfesionalLEAtendedor"/>
        </practitioner>
        <organization>
          <reference value="Organization/OrganizationLEAtendedor"/>
        </organization>
        <code>
          <coding>
            <system value="https://interoperabilidad.minsal.cl/fhir/ig/tei/CodeSystem/CSPractitionerTipoRolLE"/>
            <code value="atendedor"/>
            <display value="Atendedor"/>
          </coding>
        </code>
      </PractitionerRole>
    </resource>
  </entry>
  <entry>
    <fullUrl value="http://interoperabilidad.minsal.cl/fhir/ig/tei/Organization/OrganizationLEAtendedor"/>
    <resource>
      <Organization>
        <id value="OrganizationLEAtendedor"/>
        <meta>
          <profile value="https://interoperabilidad.minsal.cl/fhir/ig/tei/StructureDefinition/OrganizationLE"/>
        </meta>
        <text>
          <status value="generated"/><div xmlns="http://www.w3.org/1999/xhtml"><a name="Organization_OrganizationLEAtendedor"> </a><p class="res-header-id"><b>Generated Narrative: Organización OrganizationLEAtendedor</b></p><a name="OrganizationLEAtendedor"> </a><a name="hcOrganizationLEAtendedor"> </a><div style="display: inline-block; background-color: #d9e0e7; padding: 6px; margin: 4px; border: 1px solid #8da1b4; border-radius: 5px; line-height: 60%"><p style="margin-bottom: 0px"/><p style="margin-bottom: 0px">Profile: <a href="StructureDefinition-OrganizationLE.html">Organization LE</a></p></div><p><b>identifier</b>: <code>https://interoperabilidad.minsal.cl/fhir/ig/tei/CodeSystem/CSEstablecimientoDestino</code>/121343</p><p><b>name</b>: Centro de Referencia de Salud Miraflores</p></div>
        </text>
        <identifier>
          <system value="https://interoperabilidad.minsal.cl/fhir/ig/tei/CodeSystem/CSEstablecimientoDestino"/>
          <value value="121343"/>
        </identifier>
        <name value="Centro de Referencia de Salud Miraflores"/>
      </Organization>
    </resource>
  </entry>
  <entry>
    <fullUrl value="http://interoperabilidad.minsal.cl/fhir/ig/tei/Encounter/Atencion"/>
    <resource>
      <Encounter>
        <id value="Atencion"/>
        <meta>
          <profile value="https://interoperabilidad.minsal.cl/fhir/ig/tei/StructureDefinition/EncounterAtenderLE"/>
        </meta>
        <text>
          <status value="extensions"/><div xmlns="http://www.w3.org/1999/xhtml"><a name="Encounter_Atencion"> </a><p class="res-header-id"><b>Generated Narrative: Encuentro Atencion</b></p><a name="Atencion"> </a><a name="hcAtencion"> </a><div style="display: inline-block; background-color: #d9e0e7; padding: 6px; margin: 4px; border: 1px solid #8da1b4; border-radius: 5px; line-height: 60%"><p style="margin-bottom: 0px"/><p style="margin-bottom: 0px">Profile: <a href="StructureDefinition-EncounterAtenderLE.html">Encounter Atender LE</a></p></div><p><b>ExtBool Pertinencia Atencion Box</b>: true</p><p><b>identifier</b>: 123</p><p><b>status</b>: Finished</p><p><b>class</b>: <a href="CodeSystem-CSModalidadAtencionCodigo.html#CSModalidadAtencionCodigo-1">Modalidad Atencion Codigo 1</a>: Presencial</p><p><b>type</b>: <span title="Codes:{https://interoperabilidad.minsal.cl/fhir/ig/tei/CodeSystem/CSTipoConsulta 1}">Nueva</span></p><p><b>subject</b>: <a href="Patient-EjemploPatientLE.html">María Josefina Gonzalez (official) Male, DoB: 1974-12-25 ( Rol Único Nacional: 90000000-6 (use: official, ))</a></p><p><b>basedOn</b>: <a href="Bundle-BundleAtenderEjemplo.html#ServiceRequest_SolicitudInterconsultaEjemplo6">Bundle: type = message; timestamp = 2024-02-22 08:30:00-0300</a></p><h3>Participants</h3><table class="grid"><tr><td style="display: none">-</td><td><b>Individual</b></td></tr><tr><td style="display: none">*</td><td><a href="PractitionerRole-PractitionerRoleAtendedor.html">PractitionerRole Atendedor</a></td></tr></table><p><b>period</b>: 2024-02-22 08:00:00-0300 --&gt; 2024-02-22 08:30:00-0300</p><h3>Diagnoses</h3><table class="grid"><tr><td style="display: none">-</td><td><b>Condition</b></td></tr><tr><td style="display: none">*</td><td><a href="Bundle-BundleAtenderEjemplo.html#Condition_ConditionAtencion">Bundle: type = message; timestamp = 2024-02-22 08:30:00-0300</a></td></tr></table></div>
        </text>
        <extension url="https://interoperabilidad.minsal.cl/fhir/ig/tei/StructureDefinition/ExtensionPertinenciaAtencionBox">
          <valueBoolean value="true"/>
        </extension>
        <identifier>
          <value value="123"/>
        </identifier>
        <status value="finished"/>
        <class>
          <system value="https://interoperabilidad.minsal.cl/fhir/ig/tei/CodeSystem/CSModalidadAtencionCodigo"/>
          <code value="1"/>
          <display value="Presencial"/>
        </class>
        <type>
          <coding>
            <system value="https://interoperabilidad.minsal.cl/fhir/ig/tei/CodeSystem/CSTipoConsulta"/>
            <code value="1"/>
            <display value="Nueva"/>
          </coding>
        </type>
        <subject>
          <reference value="Patient/EjemploPatientLE"/>
        </subject>
        <basedOn>
          <reference value="ServiceRequest/SolicitudInterconsultaEjemplo6"/>
        </basedOn>
        <participant>
          <individual>
            <reference value="PractitionerRole/PractitionerRoleAtendedor"/>
          </individual>
        </participant>
        <period>
          <start value="2024-02-22T08:00:00-03:00"/>
          <end value="2024-02-22T08:30:00-03:00"/>
        </period>
        <diagnosis>
          <condition>
            <reference value="Condition/ConditionAtencion"/>
          </condition>
        </diagnosis>
      </Encounter>
    </resource>
  </entry>
  <entry>
    <fullUrl value="http://interoperabilidad.minsal.cl/fhir/ig/tei/CarePlan/CarePlanAtencion"/>
    <resource>
      <CarePlan>
        <id value="CarePlanAtencion"/>
        <meta>
          <profile value="https://interoperabilidad.minsal.cl/fhir/ig/tei/StructureDefinition/CarePlanAtenderLE"/>
        </meta>
        <text>
          <status value="extensions"/><div xmlns="http://www.w3.org/1999/xhtml"><a name="CarePlan_CarePlanAtencion"> </a><p class="res-header-id"><b>Generated Narrative: PlanDeCuidado CarePlanAtencion</b></p><a name="CarePlanAtencion"> </a><a name="hcCarePlanAtencion"> </a><div style="display: inline-block; background-color: #d9e0e7; padding: 6px; margin: 4px; border: 1px solid #8da1b4; border-radius: 5px; line-height: 60%"><p style="margin-bottom: 0px"/><p style="margin-bottom: 0px">Profile: <a href="StructureDefinition-CarePlanAtenderLE.html">CarePlan Atender LE</a></p></div><p><b>ExtBool Solicitud Examenes</b>: true</p><p><b>status</b>: Active</p><p><b>intent</b>: Plan</p><p><b>description</b>: Se le dara un tratamiento de prednisona de 500 mg, 2 veces al día por por 1 mes. Pasado ese tiempo debe realizarse un examen de Ab Adrenal después de ver mejorias, se hara control cada mes</p><p><b>subject</b>: <a href="Patient-EjemploPatientLE.html">María Josefina Gonzalez (official) Male, DoB: 1974-12-25 ( Rol Único Nacional: 90000000-6 (use: official, ))</a></p><p><b>encounter</b>: <a href="Bundle-BundleAtenderEjemplo.html#Encounter_Atencion">Bundle: type = message; timestamp = 2024-02-22 08:30:00-0300</a></p><blockquote><p><b>activity</b></p><p><b>reference</b>: <a href="Bundle-BundleAtenderEjemplo.html#ServiceRequest_Abadrenal">Bundle: type = message; timestamp = 2024-02-22 08:30:00-0300</a></p></blockquote><blockquote><p><b>activity</b></p><p><b>reference</b>: <a href="Bundle-BundleAtenderEjemplo.html#MedicationRequest_Prednisona">Bundle: type = message; timestamp = 2024-02-22 08:30:00-0300</a></p></blockquote></div>
        </text>
        <extension url="https://interoperabilidad.minsal.cl/fhir/ig/tei/StructureDefinition/ExtensionSolicitudExamenes">
          <valueBoolean value="true"/>
        </extension>
        <status value="active"/>
        <intent value="plan"/>
        <description value="Se le dara un tratamiento de prednisona de 500 mg, 2 veces al día por por 1 mes. Pasado ese tiempo debe realizarse un examen de Ab Adrenal después de ver mejorias, se hara control cada mes"/>
        <subject>
          <reference value="Patient/EjemploPatientLE"/>
        </subject>
        <encounter>
          <reference value="Encounter/Atencion"/>
        </encounter>
        <activity>
          <reference>
            <reference value="ServiceRequest/Abadrenal"/>
          </reference>
        </activity>
        <activity>
          <reference>
            <reference value="MedicationRequest/Prednisona"/>
          </reference>
        </activity>
      </CarePlan>
    </resource>
  </entry>
  <entry>
    <fullUrl value="http://interoperabilidad.minsal.cl/fhir/ig/tei/Condition/ConditionAtencion"/>
    <resource>
      <Condition>
        <id value="ConditionAtencion"/>
        <meta>
          <profile value="https://interoperabilidad.minsal.cl/fhir/ig/tei/StructureDefinition/ConditionDiagnosticoLE"/>
        </meta>
        <text>
          <status value="generated"/><div xmlns="http://www.w3.org/1999/xhtml"><a name="Condition_ConditionAtencion"> </a><p class="res-header-id"><b>Generated Narrative: Condición ConditionAtencion</b></p><a name="ConditionAtencion"> </a><a name="hcConditionAtencion"> </a><div style="display: inline-block; background-color: #d9e0e7; padding: 6px; margin: 4px; border: 1px solid #8da1b4; border-radius: 5px; line-height: 60%"><p style="margin-bottom: 0px"/><p style="margin-bottom: 0px">Profile: <a href="StructureDefinition-ConditionDiagnosticoLE.html">Condition Diagnostico LE</a></p></div><p><b>clinicalStatus</b>: <span title="Codes:{http://terminology.hl7.org/CodeSystem/condition-clinical active}">Activo</span></p><p><b>verificationStatus</b>: <span title="Codes:{http://terminology.hl7.org/CodeSystem/condition-ver-status confirmed}">Confirmado</span></p><p><b>category</b>: <span title="Codes:{http://terminology.hl7.org/CodeSystem/condition-category encounter-diagnosis}">Diagnostico del encuentro</span></p><p><b>severity</b>: <span title="Codes:{http://snomed.info/sct 24484000}">Severo</span></p><p><b>code</b>: <span title="Codes:{http://snomed.info/sct 24867002}">insuficiencia adrenal severa</span></p><p><b>subject</b>: <a href="Patient-EjemploPatientLE.html">María Josefina Gonzalez (official) Male, DoB: 1974-12-25 ( Rol Único Nacional: 90000000-6 (use: official, ))</a></p><p><b>encounter</b>: <a href="Bundle-BundleAtenderEjemplo.html#Encounter_Atencion">Bundle: type = message; timestamp = 2024-02-22 08:30:00-0300</a></p></div>
        </text>
        <clinicalStatus>
          <coding>
            <system value="http://terminology.hl7.org/CodeSystem/condition-clinical"/>
            <code value="active"/>
            <display value="Active"/>
          </coding>
          <text value="Activo"/>
        </clinicalStatus>
        <verificationStatus>
          <coding>
            <system value="http://terminology.hl7.org/CodeSystem/condition-ver-status"/>
            <code value="confirmed"/>
            <display value="Confirmed"/>
          </coding>
          <text value="Confirmado"/>
        </verificationStatus>
        <category>
          <coding>
            <system value="http://terminology.hl7.org/CodeSystem/condition-category"/>
            <code value="encounter-diagnosis"/>
            <display value="Encounter Diagnosis"/>
          </coding>
          <text value="Diagnostico del encuentro"/>
        </category>
        <severity>
          <coding>
            <system value="http://snomed.info/sct"/>
            <code value="24484000"/>
            <display value="Severe"/>
          </coding>
          <text value="Severo"/>
        </severity>
        <code>
          <coding>
            <system value="http://snomed.info/sct"/>
            <code value="24867002"/>
            <display value="Severe adrenal insufficiency"/>
          </coding>
          <text value="insuficiencia adrenal severa"/>
        </code>
        <subject>
          <reference value="Patient/EjemploPatientLE"/>
        </subject>
        <encounter>
          <reference value="Encounter/Atencion"/>
        </encounter>
      </Condition>
    </resource>
  </entry>
  <entry>
    <fullUrl value="http://interoperabilidad.minsal.cl/fhir/ig/tei/Observation/AntigenoProstatico"/>
    <resource>
      <Observation>
        <id value="AntigenoProstatico"/>
        <meta>
          <profile value="https://interoperabilidad.minsal.cl/fhir/ig/tei/StructureDefinition/ObservationResultadoExamen"/>
        </meta>
        <text>
          <status value="generated"/><div xmlns="http://www.w3.org/1999/xhtml"><a name="Observation_AntigenoProstatico"> </a><p class="res-header-id"><b>Generated Narrative: Observación AntigenoProstatico</b></p><a name="AntigenoProstatico"> </a><a name="hcAntigenoProstatico"> </a><div style="display: inline-block; background-color: #d9e0e7; padding: 6px; margin: 4px; border: 1px solid #8da1b4; border-radius: 5px; line-height: 60%"><p style="margin-bottom: 0px"/><p style="margin-bottom: 0px">Profile: <a href="StructureDefinition-ObservationResultadoExamen.html">Observation Resultado Examen</a></p></div><p><b>status</b>: Registered</p><p><b>category</b>: <span title="Codes:{http://terminology.hl7.org/CodeSystem/observation-category laboratory}">Laboratory</span></p><p><b>code</b>: <span title="Codes:{http://loinc.org 2857-1}">Antigeno Prostático Específico en Suero o Plasma</span></p><p><b>subject</b>: <a href="Patient-EjemploPatientLE.html">María Josefina Gonzalez (official) Male, DoB: 1974-12-25 ( Rol Único Nacional: 90000000-6 (use: official, ))</a></p><p><b>encounter</b>: <a href="Bundle-BundleAtenderEjemplo.html#Encounter_Atencion">Bundle: type = message; timestamp = 2024-02-22 08:30:00-0300</a></p><p><b>effective</b>: 2024-01-24 08:30:00-0300</p><p><b>value</b>: 3.5 ng/mL<span style="background: LightGoldenRodYellow"> (Details: UCUM  codeng/mL = 'ng/mL')</span></p></div>
        </text>
        <status value="registered"/>
        <category>
          <coding>
            <system value="http://terminology.hl7.org/CodeSystem/observation-category"/>
            <code value="laboratory"/>
          </coding>
        </category>
        <code>
          <coding>
            <system value="http://loinc.org"/>
            <code value="2857-1"/>
            <display value="Ag específico de próstata: Suero o Plasma : Punto temporal: Concentración de masa: Cuantitativo:"/>
          </coding>
          <text value="Antigeno Prostático Específico en Suero o Plasma"/>
        </code>
        <subject>
          <reference value="Patient/EjemploPatientLE"/>
        </subject>
        <encounter>
          <reference value="Encounter/Atencion"/>
        </encounter>
        <effectiveDateTime value="2024-01-24T08:30:00-03:00"/>
        <valueQuantity>
          <value value="3.5"/>
          <unit value="ng/mL"/>
          <system value="http://unitsofmeasure.org"/>
          <code value="ng/mL"/>
        </valueQuantity>
      </Observation>
    </resource>
  </entry>
  <entry>
    <fullUrl value="http://interoperabilidad.minsal.cl/fhir/ig/tei/ServiceRequest/Abadrenal"/>
    <resource>
      <ServiceRequest>
        <id value="Abadrenal"/>
        <meta>
          <profile value="https://interoperabilidad.minsal.cl/fhir/ig/tei/StructureDefinition/ServiceRequestExamenLE"/>
        </meta>
        <text>
          <status value="generated"/><div xmlns="http://www.w3.org/1999/xhtml"><a name="ServiceRequest_Abadrenal"> </a><p class="res-header-id"><b>Generated Narrative: PeticiónServicio Abadrenal</b></p><a name="Abadrenal"> </a><a name="hcAbadrenal"> </a><div style="display: inline-block; background-color: #d9e0e7; padding: 6px; margin: 4px; border: 1px solid #8da1b4; border-radius: 5px; line-height: 60%"><p style="margin-bottom: 0px"/><p style="margin-bottom: 0px">Profile: <a href="StructureDefinition-ServiceRequestExamenLE.html">Solicitud de Examen LE</a></p></div><p><b>basedOn</b>: <a href="Bundle-BundleAtenderEjemplo.html#ServiceRequest_SolicitudInterconsultaEjemplo6">Bundle: type = message; timestamp = 2024-02-22 08:30:00-0300</a></p><p><b>status</b>: Draft</p><p><b>intent</b>: Order</p><p><b>code</b>: <span title="Codes:{http://loinc.org 8059-8}">Ab adrenal en Sérum</span></p><p><b>subject</b>: <a href="Patient-EjemploPatientLE.html">María Josefina Gonzalez (official) Male, DoB: 1974-12-25 ( Rol Único Nacional: 90000000-6 (use: official, ))</a></p><p><b>authoredOn</b>: 2024-02-22 08:30:00-0300</p><p><b>requester</b>: <a href="Practitioner-PractitionerProfesionalLEAtendedor.html">Practitioner Gonzalo Gonzalez </a></p><p><b>reasonCode</b>: <span title="Codes:{http://snomed.info/sct 24867002}">insuficiencia adrenal severa</span></p><p><b>note</b>: </p><blockquote><div><p>para dar seguimiento al tratamiento del paciente</p>
</div></blockquote></div>
        </text>
        <basedOn>
          <reference value="ServiceRequest/SolicitudInterconsultaEjemplo6"/>
        </basedOn>
        <status value="draft"/>
        <intent value="order"/>
        <code>
          <coding>
            <system value="http://loinc.org"/>
            <code value="8059-8"/>
          </coding>
          <text value="Ab adrenal en Sérum"/>
        </code>
        <subject>
          <reference value="Patient/EjemploPatientLE"/>
        </subject>
        <authoredOn value="2024-02-22T08:30:00-03:00"/>
        <requester>
          <reference value="Practitioner/PractitionerProfesionalLEAtendedor"/>
        </requester>
        <reasonCode>
          <coding>
            <system value="http://snomed.info/sct"/>
            <code value="24867002"/>
            <display value="Severe adrenal insufficiency"/>
          </coding>
          <text value="insuficiencia adrenal severa"/>
        </reasonCode>
        <note>
          <text value="para dar seguimiento al tratamiento del paciente"/>
        </note>
      </ServiceRequest>
    </resource>
  </entry>
  <entry>
    <fullUrl value="http://interoperabilidad.minsal.cl/fhir/ig/tei/Observation/Anamnesis"/>
    <resource>
      <Observation>
        <id value="Anamnesis"/>
        <meta>
          <profile value="https://interoperabilidad.minsal.cl/fhir/ig/tei/StructureDefinition/ObservationAnamnesisLE"/>
        </meta>
        <text>
          <status value="generated"/><div xmlns="http://www.w3.org/1999/xhtml"><a name="Observation_Anamnesis"> </a><p class="res-header-id"><b>Generated Narrative: Observación Anamnesis</b></p><a name="Anamnesis"> </a><a name="hcAnamnesis"> </a><div style="display: inline-block; background-color: #d9e0e7; padding: 6px; margin: 4px; border: 1px solid #8da1b4; border-radius: 5px; line-height: 60%"><p style="margin-bottom: 0px"/><p style="margin-bottom: 0px">Profile: <a href="StructureDefinition-ObservationAnamnesisLE.html">Observation Anamnesis LE</a></p></div><p><b>status</b>: Registered</p><p><b>code</b>: <span title="Codes:{http://snomed.info/sct 84100007}">Anamnesis</span></p><p><b>subject</b>: <a href="Patient-EjemploPatientLE.html">María Josefina Gonzalez (official) Male, DoB: 1974-12-25 ( Rol Único Nacional: 90000000-6 (use: official, ))</a></p><p><b>encounter</b>: <a href="Bundle-BundleAtenderEjemplo.html#Encounter_Atencion">Bundle: type = message; timestamp = 2024-02-22 08:30:00-0300</a></p><p><b>effective</b>: 2024-01-24 08:30:00-0300</p><p><b>value</b>: A pesar de la severidad de la condición del paciente, se encuentra estable, por lo que, dar un tratamiento más fuerte podría afectar su condición, lo mejor será iniciar con algo lo suficientemente suave. Hay que mantenerlo vigilado.</p></div>
        </text>
        <status value="registered"/>
        <code>
          <coding>
            <system value="http://snomed.info/sct"/>
            <code value="84100007"/>
          </coding>
          <text value="Anamnesis"/>
        </code>
        <subject>
          <reference value="Patient/EjemploPatientLE"/>
        </subject>
        <encounter>
          <reference value="Encounter/Atencion"/>
        </encounter>
        <effectiveDateTime value="2024-01-24T08:30:00-03:00"/>
        <valueString value="A pesar de la severidad de la condición del paciente, se encuentra estable, por lo que, dar un tratamiento más fuerte podría afectar su condición, lo mejor será iniciar con algo lo suficientemente suave. Hay que mantenerlo vigilado."/>
      </Observation>
    </resource>
  </entry>
  <entry>
    <fullUrl value="http://interoperabilidad.minsal.cl/fhir/ig/tei/MedicationRequest/Prednisona"/>
    <resource>
      <MedicationRequest>
        <id value="Prednisona"/>
        <meta>
          <profile value="https://interoperabilidad.minsal.cl/fhir/ig/tei/StructureDefinition/MedicationRequestLE"/>
        </meta>
        <text>
          <status value="generated"/><div xmlns="http://www.w3.org/1999/xhtml"><a name="MedicationRequest_Prednisona"> </a><p class="res-header-id"><b>Generated Narrative: PrescripciónMedicaciónTODO  /PrescripcionMedicamento Prednisona</b></p><a name="Prednisona"> </a><a name="hcPrednisona"> </a><div style="display: inline-block; background-color: #d9e0e7; padding: 6px; margin: 4px; border: 1px solid #8da1b4; border-radius: 5px; line-height: 60%"><p style="margin-bottom: 0px"/><p style="margin-bottom: 0px">Profile: <a href="StructureDefinition-MedicationRequestLE.html">Solicitud de Medicamento LE</a></p></div><p><b>status</b>: Draft</p><p><b>intent</b>: Order</p><p><b>medication</b>: <span title="Codes:">Prednisona 5mg</span></p><p><b>subject</b>: <a href="Patient-EjemploPatientLE.html">María Josefina Gonzalez (official) Male, DoB: 1974-12-25 ( Rol Único Nacional: 90000000-6 (use: official, ))</a></p><p><b>encounter</b>: <a href="Bundle-BundleAtenderEjemplo.html#Encounter_Atencion">Bundle: type = message; timestamp = 2024-02-22 08:30:00-0300</a></p><p><b>requester</b>: <a href="Practitioner-PractitionerProfesionalLEAtendedor.html">Practitioner Gonzalo Gonzalez </a></p><p><b>note</b>: </p><blockquote><div><p>2 veces al día por 1 mes</p>
</div></blockquote></div>
        </text>
        <status value="draft"/>
        <intent value="order"/>
        <medicationCodeableConcept>
          <text value="Prednisona 5mg"/>
        </medicationCodeableConcept>
        <subject>
          <reference value="Patient/EjemploPatientLE"/>
        </subject>
        <encounter>
          <reference value="Encounter/Atencion"/>
        </encounter>
        <requester>
          <reference value="Practitioner/PractitionerProfesionalLEAtendedor"/>
        </requester>
        <note>
          <text value="2 veces al día por 1 mes"/>
        </note>
      </MedicationRequest>
    </resource>
  </entry>
</Bundle>