<?xml version="1.0" encoding="UTF-8"?>

<Bundle xmlns="http://hl7.org/fhir">
  <id value="Ej1BundleAdmision"/>
  <meta>
    <profile value="https://interoperabilidad.minsal.cl/fhir/ig/urgencia/StructureDefinition/BundleAdmision"/>
  </meta>
  <type value="transaction"/>
  <entry>
    <fullUrl value="urn:uuid:6ec6dc25-4b65-4165-a545-9b796f60b997"/>
    <resource>
      <Patient>
        <id value="6ec6dc25-4b65-4165-a545-9b796f60b997"/>
        <meta>
          <profile value="https://interoperabilidad.minsal.cl/fhir/ig/urgencia/StructureDefinition/PatientUrg"/>
        </meta>
        <text>
          <status value="generated"/><div xmlns="http://www.w3.org/1999/xhtml"><a name="Patient_6ec6dc25-4b65-4165-a545-9b796f60b997"> </a><p class="res-header-id"><b>Generated Narrative: Patient 6ec6dc25-4b65-4165-a545-9b796f60b997</b></p><a name="6ec6dc25-4b65-4165-a545-9b796f60b997"> </a><a name="hc6ec6dc25-4b65-4165-a545-9b796f60b997"> </a><div style="display: inline-block; background-color: #d9e0e7; padding: 6px; margin: 4px; border: 1px solid #8da1b4; border-radius: 5px; line-height: 60%"><p style="margin-bottom: 0px"/><p style="margin-bottom: 0px">Profile: <a href="StructureDefinition-PatientUrg.html">Paciente Urgencia</a></p></div><p style="border: 1px #661aff solid; background-color: #e6e6ff; padding: 10px;">Maria Josefína Perez Gonzalez(official) Female, DoB: 1974-12-25 ( Rol Único Nacional: 90000000-6 (use: official, ))</p><hr/><table class="grid"><tr><td style="background-color: #f3f5da" title="Record is active">Active:</td><td>true</td><td style="background-color: #f3f5da" title="Known status of Patient">Deceased:</td><td colspan="3">false</td></tr><tr><td style="background-color: #f3f5da" title="Ways to contact the Patient">Contact Detail</td><td colspan="3"><ul><li>ph: (562) 5555 6473(Work)</li><li>Calle Arrabal Conchita Tejeda Nº 24, Esc. 432(home)</li></ul></td></tr><tr><td style="background-color: #f3f5da" title="Pueblos Afrodescendiente"><a href="StructureDefinition-PueblosAfrodescendiente.html">Pueblos Afrodescendiente</a></td><td colspan="3">false</td></tr><tr><td style="background-color: #f3f5da" title="Esta extensión incluye códigos de países"><a href="https://hl7chile.cl/fhir/ig/clcore/1.9.4/StructureDefinition-CodigoPaises.html">Código de Países</a></td><td colspan="3"><span title="Codes:{urn:iso:std:iso:3166 152}">Chile</span></td></tr><tr><td style="background-color: #f3f5da" title="Pueblos Originarios Perteneciente"><a href="StructureDefinition-PueblosOriginariosPerteneciente.html">Pueblos Originarios Perteneciente</a></td><td colspan="3">true</td></tr><tr><td style="background-color: #f3f5da" title="Religión"><a href="StructureDefinition-Religion.html">Religión</a></td><td colspan="3"><span title="Codes:{https://interoperabilidad.minsal.cl/fhir/ig/urgencia/CodeSystem/CSReligion 1}">Católica</span></td></tr><tr><td style="background-color: #f3f5da" title="País de origen del paciente"><a href="StructureDefinition-PaisOrigenMPI.html">País de origen del paciente</a></td><td colspan="3"><span title="Codes:{urn:iso:std:iso:3166 152}">Chile</span></td></tr><tr><td style="background-color: #f3f5da" title="Identidad De Género"><a href="https://hl7chile.cl/fhir/ig/clcore/1.9.4/StructureDefinition-IdentidadDeGenero.html">Identidad De Género</a></td><td colspan="3"><span title="Codes:{https://hl7chile.cl/fhir/ig/clcore/CodeSystem/CSIdentidaddeGenero 2}">Femenina</span></td></tr><tr><td style="background-color: #f3f5da" title="Almacenar si el paciente pertenece a algun pueblo originario"><a href="StructureDefinition-PueblosOriginarios.html">Pueblos Originarios</a></td><td colspan="3"><span title="Codes:{https://interoperabilidad.minsal.cl/fhir/ig/urgencia/CodeSystem/PueblosOriginariosCS 07}">Diaguita</span></td></tr></table></div>
        </text>
        <extension url="https://interoperabilidad.minsal.cl/fhir/ig/urgencia/StructureDefinition/PueblosOriginariosPerteneciente">
          <valueBoolean value="true"/>
        </extension>
        <extension url="https://interoperabilidad.minsal.cl/fhir/ig/urgencia/StructureDefinition/PueblosOriginarios">
          <valueCodeableConcept>
            <coding>
              <system value="https://interoperabilidad.minsal.cl/fhir/ig/urgencia/CodeSystem/PueblosOriginariosCS"/>
              <code value="07"/>
              <display value="Diaguita"/>
            </coding>
          </valueCodeableConcept>
        </extension>
        <extension url="https://interoperabilidad.minsal.cl/fhir/ig/urgencia/StructureDefinition/PueblosAfrodescendiente">
          <valueBoolean value="false"/>
        </extension>
        <extension url="https://hl7chile.cl/fhir/ig/clcore/StructureDefinition/IdentidadDeGenero">
          <valueCodeableConcept>
            <coding>
              <system value="https://hl7chile.cl/fhir/ig/clcore/CodeSystem/CSIdentidaddeGenero"/>
              <code value="2"/>
              <display value="Femenina"/>
            </coding>
          </valueCodeableConcept>
        </extension>
        <extension url="https://interoperabilidad.minsal.cl/fhir/ig/urgencia/StructureDefinition/PaisOrigenMPI">
          <valueCodeableConcept>
            <coding>
              <system value="urn:iso:std:iso:3166"/>
              <code value="152"/>
              <display value="Chile"/>
            </coding>
          </valueCodeableConcept>
        </extension>
        <extension url="https://hl7chile.cl/fhir/ig/clcore/StructureDefinition/CodigoPaises">
          <valueCodeableConcept>
            <coding>
              <system value="urn:iso:std:iso:3166"/>
              <code value="152"/>
              <display value="Chile"/>
            </coding>
          </valueCodeableConcept>
        </extension>
        <extension url="https://interoperabilidad.minsal.cl/fhir/ig/urgencia/StructureDefinition/Religion">
          <valueCodeableConcept>
            <coding>
              <system value="https://interoperabilidad.minsal.cl/fhir/ig/urgencia/CodeSystem/CSReligion"/>
              <code value="1"/>
              <display value="Católica"/>
            </coding>
          </valueCodeableConcept>
        </extension>
        <identifier>
          <use value="official"/>
          <type>
            <extension url="https://hl7chile.cl/fhir/ig/clcore/StructureDefinition/CodigoPaises">
              <valueCodeableConcept>
                <coding>
                  <system value="urn:iso:std:iso:3166"/>
                  <code value="152"/>
                  <display value="Chile"/>
                </coding>
              </valueCodeableConcept>
            </extension>
            <coding>
              <system value="https://hl7chile.cl/fhir/ig/clcore/CodeSystem/CSTipoIdentificador"/>
              <code value="01"/>
              <display value="RUN"/>
            </coding>
            <text value="Rol Único Nacional"/>
          </type>
          <value value="90000000-6"/>
          <assigner>
            <display value="Republica de Chile"/>
          </assigner>
        </identifier>
        <active value="true"/>
        <name>
          <use value="official"/>
          <text value="Maria Josefína Perez Gonzalez"/>
          <family value="Perez">
            <extension url="https://hl7chile.cl/fhir/ig/clcore/StructureDefinition/SegundoApellido">
              <valueString value="Gonzalez"/>
            </extension>
          </family>
          <given value="María"/>
          <given value="Josefina"/>
        </name>
        <telecom>
          <system value="phone"/>
          <value value="(562) 5555 6473"/>
          <use value="work"/>
          <rank value="1"/>
        </telecom>
        <gender value="female"/>
        <birthDate value="1974-12-25"/>
        <deceasedBoolean value="false"/>
        <address>
          <use value="home"/>
          <text value="Calle Arrabal Conchita Tejeda Nº 24, Esc. 432"/>
          <line value="Calle Arrabal Conchita Tejeda"/>
          <city value="Huara">
            <extension url="https://hl7chile.cl/fhir/ig/clcore/StructureDefinition/ComunasCl">
              <valueCodeableConcept>
                <coding>
                  <system value="https://hl7chile.cl/fhir/ig/clcore/CodeSystem/CSCodComunasCL"/>
                  <code value="01404"/>
                  <display value="Huara"/>
                </coding>
              </valueCodeableConcept>
            </extension>
          </city>
          <district value="Provincia del Tamarugal">
            <extension url="https://hl7chile.cl/fhir/ig/clcore/StructureDefinition/ProvinciasCl">
              <valueCodeableConcept>
                <coding>
                  <system value="https://hl7chile.cl/fhir/ig/clcore/CodeSystem/CSCodProvinciasCL"/>
                  <code value="014"/>
                  <display value="Tamarugal"/>
                </coding>
              </valueCodeableConcept>
            </extension>
          </district>
          <state value="Región de Tarapacá">
            <extension url="https://hl7chile.cl/fhir/ig/clcore/StructureDefinition/RegionesCl">
              <valueCodeableConcept>
                <coding>
                  <system value="https://hl7chile.cl/fhir/ig/clcore/CodeSystem/CSCodRegionCL"/>
                  <code value="01"/>
                  <display value="Tarapacá"/>
                </coding>
              </valueCodeableConcept>
            </extension>
          </state>
        </address>
      </Patient>
    </resource>
    <request>
      <method value="POST"/>
      <url value="Patient"/>
      <ifNoneExist value="identifier=90000000-6"/>
    </request>
  </entry>
  <entry>
    <fullUrl value="urn:uuid:d1391b7b-302a-49f8-a908-8116599e137e"/>
    <resource>
      <Encounter>
        <id value="d1391b7b-302a-49f8-a908-8116599e137e"/>
        <meta>
          <profile value="https://interoperabilidad.minsal.cl/fhir/ig/urgencia/StructureDefinition/EncounterUrg"/>
        </meta>
        <text>
          <status value="extensions"/><div xmlns="http://www.w3.org/1999/xhtml"><a name="Encounter_d1391b7b-302a-49f8-a908-8116599e137e"> </a><p class="res-header-id"><b>Generated Narrative: Encounter d1391b7b-302a-49f8-a908-8116599e137e</b></p><a name="d1391b7b-302a-49f8-a908-8116599e137e"> </a><a name="hcd1391b7b-302a-49f8-a908-8116599e137e"> </a><div style="display: inline-block; background-color: #d9e0e7; padding: 6px; margin: 4px; border: 1px solid #8da1b4; border-radius: 5px; line-height: 60%"><p style="margin-bottom: 0px"/><p style="margin-bottom: 0px">Profile: <a href="StructureDefinition-EncounterUrg.html">Encuentro Urgencia</a></p></div><p><b>Acompañante</b>: false</p><p><b>identifier</b>: 126402-0025</p><p><b>status</b>: Arrived</p><h3>StatusHistories</h3><table class="grid"><tr><td style="display: none">-</td><td><b>Status</b></td><td><b>Period</b></td></tr><tr><td style="display: none">*</td><td>Arrived</td><td>2024-10-25 13:18:00-0400 --&gt; (ongoing)</td></tr></table><p><b>class</b>: <a href="http://terminology.hl7.org/7.0.0/CodeSystem-v3-ActCode.html#v3-ActCode-EMER">ActCode: EMER</a> (emergency)</p><p><b>priority</b>: <span title="Codes:{https://interoperabilidad.minsal.cl/fhir/ig/urgencia/CodeSystem/categorizacion-no-realizada 99}">Sin Categorizar</span></p><p><b>subject</b>: <a href="Bundle-Ej1BundleAdmision.html#urn-uuid-6ec6dc25-4b65-4165-a545-9b796f60b997">Maria Josefína Perez Gonzalez(official) Female, DoB: 1974-12-25 ( Rol Único Nacional: 90000000-6 (use: official, ))</a></p><blockquote><p><b>participant</b></p><p><b>type</b>: <span title="Codes:{http://terminology.hl7.org/CodeSystem/v3-ParticipationType ADM}">admitter</span></p><p><b>period</b>: 2024-10-25 13:18:00-0400 --&gt; (ongoing)</p><p><b>individual</b>: <a href="Bundle-Ej1BundleAdmision.html#urn-uuid-b9f6967f-51b5-49f4-8576-ce9f588523c2">Practitioner Mario Donoso </a></p></blockquote><blockquote><p><b>participant</b></p><p><b>type</b>: <span title="Codes:{http://terminology.hl7.org/CodeSystem/participant-type emergency}">Emergency</span></p><p><b>individual</b>: <a href="Bundle-Ej1BundleAdmision.html#urn-uuid-bb7f34f7-8f4e-42c8-aa84-1f64bf584a05">RelatedPerson Jose Luis Perez </a></p></blockquote><p><b>period</b>: 2024-10-25 13:18:00-0400 --&gt; (ongoing)</p><blockquote><p><b>hospitalization</b></p><p><b>Medio de Llegada</b>: <span title="Codes:{https://interoperabilidad.minsal.cl/fhir/ig/urgencia/CodeSystem/MedioDeLlegada 5}">Vehículo particular</span></p><p><b>Consulta por Accidente</b>: false</p><p><b>admitSource</b>: <span title="Codes:{https://interoperabilidad.minsal.cl/fhir/ig/urgencia/CodeSystem/Procedencia 9}">Domicilio</span></p></blockquote><p><b>serviceProvider</b>: <a href="Bundle-Ej1BundleAdmision.html#urn-uuid-5491b8d5-e06c-4f89-beb7-75a1989cdc81">Organization Hospital Clínico Metropolitano La Florida Dra. Eloísa Díaz Insunza</a></p></div>
        </text>
        <extension url="https://interoperabilidad.minsal.cl/fhir/ig/urgencia/StructureDefinition/Acompanante">
          <valueBoolean value="false"/>
        </extension>
        <identifier>
          <value value="126402-0025"/>
        </identifier>
        <status value="arrived"/>
        <statusHistory>
          <status value="arrived"/>
          <period>
            <start value="2024-10-25T13:18:00-04:00"/>
          </period>
        </statusHistory>
        <class>
          <system value="http://terminology.hl7.org/CodeSystem/v3-ActCode"/>
          <code value="EMER"/>
        </class>
        <priority>
          <coding>
            <system value="https://interoperabilidad.minsal.cl/fhir/ig/urgencia/CodeSystem/categorizacion-no-realizada"/>
            <code value="99"/>
            <display value="Sin Categorizar"/>
          </coding>
        </priority>
        <subject>
          <reference value="urn:uuid:6ec6dc25-4b65-4165-a545-9b796f60b997"/>
        </subject>
        <participant>
          <type>
            <coding>
              <system value="http://terminology.hl7.org/CodeSystem/v3-ParticipationType"/>
              <code value="ADM"/>
            </coding>
          </type>
          <period>
            <start value="2024-10-25T13:18:00-04:00"/>
          </period>
          <individual>
            <reference value="urn:uuid:b9f6967f-51b5-49f4-8576-ce9f588523c2"/>
          </individual>
        </participant>
        <participant>
          <type>
            <coding>
              <system value="http://terminology.hl7.org/CodeSystem/participant-type"/>
              <version value="4.0.1"/>
              <code value="emergency"/>
            </coding>
          </type>
          <individual>
            <reference value="urn:uuid:bb7f34f7-8f4e-42c8-aa84-1f64bf584a05"/>
          </individual>
        </participant>
        <period>
          <start value="2024-10-25T13:18:00-04:00"/>
        </period>
        <hospitalization>
          <extension url="https://interoperabilidad.minsal.cl/fhir/ig/urgencia/StructureDefinition/MedioDeLlegada">
            <valueCodeableConcept>
              <coding>
                <system value="https://interoperabilidad.minsal.cl/fhir/ig/urgencia/CodeSystem/MedioDeLlegada"/>
                <code value="5"/>
                <display value="Vehículo particular"/>
              </coding>
            </valueCodeableConcept>
          </extension>
          <extension url="https://interoperabilidad.minsal.cl/fhir/ig/urgencia/StructureDefinition/ConsultaPorAccidente">
            <valueBoolean value="false"/>
          </extension>
          <admitSource>
            <coding>
              <system value="https://interoperabilidad.minsal.cl/fhir/ig/urgencia/CodeSystem/Procedencia"/>
              <code value="9"/>
              <display value="Domicilio"/>
            </coding>
          </admitSource>
        </hospitalization>
        <serviceProvider>
          <reference value="urn:uuid:5491b8d5-e06c-4f89-beb7-75a1989cdc81"/>
        </serviceProvider>
      </Encounter>
    </resource>
    <request>
      <method value="POST"/>
      <url value="Encounter"/>
    </request>
  </entry>
  <entry>
    <fullUrl value="urn:uuid:5491b8d5-e06c-4f89-beb7-75a1989cdc81"/>
    <resource>
      <Organization>
        <id value="5491b8d5-e06c-4f89-beb7-75a1989cdc81"/>
        <meta>
          <profile value="https://interoperabilidad.minsal.cl/fhir/ig/urgencia/StructureDefinition/EstablecimientoUrg"/>
        </meta>
        <text>
          <status value="generated"/><div xmlns="http://www.w3.org/1999/xhtml"><a name="Organization_5491b8d5-e06c-4f89-beb7-75a1989cdc81"> </a><p class="res-header-id"><b>Generated Narrative: Organization 5491b8d5-e06c-4f89-beb7-75a1989cdc81</b></p><a name="5491b8d5-e06c-4f89-beb7-75a1989cdc81"> </a><a name="hc5491b8d5-e06c-4f89-beb7-75a1989cdc81"> </a><div style="display: inline-block; background-color: #d9e0e7; padding: 6px; margin: 4px; border: 1px solid #8da1b4; border-radius: 5px; line-height: 60%"><p style="margin-bottom: 0px"/><p style="margin-bottom: 0px">Profile: <a href="StructureDefinition-EstablecimientoUrg.html">Establecimiento Urgencia</a></p></div><p><b>identifier</b>: <code>http://deis.minsal.cl/establecimientos</code>/114105</p><p><b>active</b>: true</p><p><b>name</b>: Hospital Clínico Metropolitano La Florida Dra. Eloísa Díaz Insunza</p></div>
        </text>
        <identifier>
          <system value="http://deis.minsal.cl/establecimientos"/>
          <value value="114105"/>
        </identifier>
        <active value="true"/>
        <name value="Hospital Clínico Metropolitano La Florida Dra. Eloísa Díaz Insunza"/>
      </Organization>
    </resource>
    <request>
      <method value="POST"/>
      <url value="Organization"/>
      <ifNoneExist value="identifier=114105"/>
    </request>
  </entry>
  <entry>
    <fullUrl value="urn:uuid:b9f6967f-51b5-49f4-8576-ce9f588523c2"/>
    <resource>
      <Practitioner>
        <id value="b9f6967f-51b5-49f4-8576-ce9f588523c2"/>
        <meta>
          <profile value="https://interoperabilidad.minsal.cl/fhir/ig/urgencia/StructureDefinition/PrestadorAdministrativo"/>
        </meta>
        <text>
          <status value="generated"/><div xmlns="http://www.w3.org/1999/xhtml"><a name="Practitioner_b9f6967f-51b5-49f4-8576-ce9f588523c2"> </a><p class="res-header-id"><b>Generated Narrative: Practitioner b9f6967f-51b5-49f4-8576-ce9f588523c2</b></p><a name="b9f6967f-51b5-49f4-8576-ce9f588523c2"> </a><a name="hcb9f6967f-51b5-49f4-8576-ce9f588523c2"> </a><div style="display: inline-block; background-color: #d9e0e7; padding: 6px; margin: 4px; border: 1px solid #8da1b4; border-radius: 5px; line-height: 60%"><p style="margin-bottom: 0px"/><p style="margin-bottom: 0px">Profile: <a href="StructureDefinition-PrestadorAdministrativo.html">Prestador Administrativo de Urgencia</a></p></div><p><b>identifier</b>: RUN/44444444-4 (use: official, )</p><p><b>name</b>: Mario Donoso </p></div>
        </text>
        <identifier>
          <use value="official"/>
          <type>
            <coding>
              <system value="https://hl7chile.cl/fhir/ig/clcore/CodeSystem/CSTipoIdentificador"/>
              <code value="01"/>
              <display value="RUN"/>
            </coding>
          </type>
          <value value="44444444-4"/>
        </identifier>
        <name>
          <family value="Donoso">
            <extension url="https://hl7chile.cl/fhir/ig/clcore/StructureDefinition/SegundoApellido">
              <valueString value="Mardones"/>
            </extension>
          </family>
          <given value="Mario"/>
        </name>
      </Practitioner>
    </resource>
    <request>
      <method value="POST"/>
      <url value="Practitioner"/>
      <ifNoneExist value="identifier=44444444-4"/>
    </request>
  </entry>
  <entry>
    <fullUrl value="urn:uuid:bb7f34f7-8f4e-42c8-aa84-1f64bf584a05"/>
    <resource>
      <RelatedPerson>
        <id value="bb7f34f7-8f4e-42c8-aa84-1f64bf584a05"/>
        <meta>
          <profile value="https://interoperabilidad.minsal.cl/fhir/ig/urgencia/StructureDefinition/AcompananteUrg"/>
        </meta>
        <text>
          <status value="generated"/><div xmlns="http://www.w3.org/1999/xhtml"><a name="RelatedPerson_bb7f34f7-8f4e-42c8-aa84-1f64bf584a05"> </a><p class="res-header-id"><b>Generated Narrative: RelatedPerson bb7f34f7-8f4e-42c8-aa84-1f64bf584a05</b></p><a name="bb7f34f7-8f4e-42c8-aa84-1f64bf584a05"> </a><a name="hcbb7f34f7-8f4e-42c8-aa84-1f64bf584a05"> </a><div style="display: inline-block; background-color: #d9e0e7; padding: 6px; margin: 4px; border: 1px solid #8da1b4; border-radius: 5px; line-height: 60%"><p style="margin-bottom: 0px"/><p style="margin-bottom: 0px">Profile: <a href="StructureDefinition-AcompananteUrg.html">Acompañante Urgencia</a></p></div><p><b>patient</b>: <a href="Bundle-Ej1BundleAdmision.html#urn-uuid-6ec6dc25-4b65-4165-a545-9b796f60b997">Maria Josefína Perez Gonzalez(official) Female, DoB: 1974-12-25 ( Rol Único Nacional: 90000000-6 (use: official, ))</a></p><p><b>relationship</b>: <span title="Codes:{https://interoperabilidad.minsal.cl/fhir/ig/urgencia/CodeSystem/RelacionAcompanante 3}">Familiar</span></p><p><b>name</b>: Jose Luis Perez </p></div>
        </text>
        <patient>
          <reference value="urn:uuid:6ec6dc25-4b65-4165-a545-9b796f60b997"/>
        </patient>
        <relationship>
          <coding>
            <system value="https://interoperabilidad.minsal.cl/fhir/ig/urgencia/CodeSystem/RelacionAcompanante"/>
            <code value="3"/>
            <display value="Familiar"/>
          </coding>
        </relationship>
        <name>
          <family value="Perez">
            <extension url="https://hl7chile.cl/fhir/ig/clcore/StructureDefinition/SegundoApellido">
              <valueString value="Gonzalez"/>
            </extension>
          </family>
          <given value="Jose"/>
          <given value="Luis"/>
        </name>
      </RelatedPerson>
    </resource>
    <request>
      <method value="POST"/>
      <url value="RelatedPerson"/>
    </request>
  </entry>
</Bundle>