<?xml version="1.0" encoding="UTF-8"?>

<Bundle xmlns="http://hl7.org/fhir">
  <id value="EjBundleAtencion"/>
  <meta>
    <profile value="https://interoperabilidad.minsal.cl/fhir/ig/urgencia/StructureDefinition/BundleAtencion"/>
  </meta>
  <type value="transaction"/>
  <entry>
    <fullUrl value="urn:uuid:d1391b7b-302a-49f8-a908-8116599e137e"/>
    <resource>
      <Encounter>
        <id value="d1391b7b-302a-49f8-a908-8116599e137e"/>
        <meta>
          <profile value="https://interoperabilidad.minsal.cl/fhir/ig/urgencia/StructureDefinition/EncounterUrg"/>
        </meta>
        <text>
          <status value="extensions"/><div xmlns="http://www.w3.org/1999/xhtml"><a name="Encounter_d1391b7b-302a-49f8-a908-8116599e137e"> </a><p class="res-header-id"><b>Generated Narrative: Encounter d1391b7b-302a-49f8-a908-8116599e137e</b></p><a name="d1391b7b-302a-49f8-a908-8116599e137e"> </a><a name="hcd1391b7b-302a-49f8-a908-8116599e137e"> </a><div style="display: inline-block; background-color: #d9e0e7; padding: 6px; margin: 4px; border: 1px solid #8da1b4; border-radius: 5px; line-height: 60%"><p style="margin-bottom: 0px"/><p style="margin-bottom: 0px">Profile: <a href="StructureDefinition-EncounterUrg.html">Encuentro Urgencia</a></p></div><p><b>Acompañante</b>: false</p><p><b>identifier</b>: 126402-0025</p><p><b>status</b>: In Progress</p><blockquote><p><b>statusHistory</b></p><p><b>status</b>: Arrived</p><p><b>period</b>: 2024-10-25 13:18:00-0400 --&gt; (ongoing)</p></blockquote><blockquote><p><b>statusHistory</b></p><p><b>status</b>: Triaged</p><p><b>period</b>: 2024-10-25 13:30:00-0400 --&gt; (ongoing)</p></blockquote><blockquote><p><b>statusHistory</b></p><p><b>status</b>: In Progress</p><p><b>period</b>: 2024-10-25 14:12:00-0400 --&gt; (ongoing)</p></blockquote><p><b>class</b>: <a href="http://terminology.hl7.org/7.0.0/CodeSystem-v3-ActCode.html#v3-ActCode-EMER">ActCode: EMER</a> (emergency)</p><p><b>priority</b>: <span title="Codes:{https://interoperabilidad.minsal.cl/fhir/ig/urgencia/CodeSystem/categorizacion-ugo C3}">Atención Prioritaria</span></p><p><b>subject</b>: <a href="Patient-6ec6dc25-4b65-4165-a545-9b796f60b997.html">Maria Josefína Perez Gonzalez(official) Female, DoB: 1974-12-25 ( Rol Único Nacional: 90000000-6 (use: official, ))</a></p><blockquote><p><b>participant</b></p><p><b>type</b>: <span title="Codes:{http://terminology.hl7.org/CodeSystem/v3-ParticipationType ADM}">admitter</span></p><p><b>period</b>: 2024-10-25 13:18:00-0400 --&gt; (ongoing)</p><p><b>individual</b>: <a href="Practitioner-b9f6967f-51b5-49f4-8576-ce9f588523c2.html">Practitioner Mario Donoso </a></p></blockquote><blockquote><p><b>participant</b></p><p><b>type</b>: <span title="Codes:{http://terminology.hl7.org/CodeSystem/participant-type emergency}">Emergency</span></p><p><b>individual</b>: <a href="RelatedPerson-bb7f34f7-8f4e-42c8-aa84-1f64bf584a05.html">RelatedPerson Jose Luis Perez </a></p></blockquote><blockquote><p><b>participant</b></p><p><b>type</b>: <span title="Codes:{https://interoperabilidad.minsal.cl/fhir/ig/urgencia/CodeSystem/TipoParticipanteUrgencia triage}">Categorizador</span></p><p><b>period</b>: 2024-10-25 13:30:00-0400 --&gt; (ongoing)</p><p><b>individual</b>: <a href="Practitioner-d04739d3-ba47-4f0f-920f-bcd66b474963.html">Practitioner Juan Carlos Perez Gonzalez(official)</a></p></blockquote><blockquote><p><b>participant</b></p><p><b>type</b>: <span title="Codes:{http://terminology.hl7.org/CodeSystem/v3-ParticipationType ATND}">attender</span></p><p><b>period</b>: 2024-10-25 14:12:00-0400 --&gt; (ongoing)</p><p><b>individual</b>: <a href="Bundle-EjBundleAtencion.html#urn-uuid-190cd208-48b1-4920-a283-6bc37cbde13a">Practitioner Luis Gonzalez (official)</a></p></blockquote><blockquote><p><b>participant</b></p><p><b>type</b>: <span title="Codes:{http://terminology.hl7.org/CodeSystem/v3-ParticipationType CON}">consultant</span></p><p><b>period</b>: 2024-10-25 14:29:00-0400 --&gt; (ongoing)</p><p><b>individual</b>: <a href="Bundle-EjBundleAtencion.html#urn-uuid-fbb0e12c-95ec-43f7-bff1-73009b307cb5">Practitioner Maria Fernandez (official)</a></p></blockquote><p><b>period</b>: 2024-10-25 13:18:00-0400 --&gt; (ongoing)</p><p><b>reasonCode</b>: <span title="Codes:">Dolor abdominal de 24 horas de evolución</span></p><h3>Diagnoses</h3><table class="grid"><tr><td style="display: none">-</td><td><b>Condition</b></td><td><b>Use</b></td><td><b>Rank</b></td></tr><tr><td style="display: none">*</td><td><a href="Bundle-EjBundleAtencion.html#urn-uuid-e27704ff-fa1a-4750-9d23-36ce567f35b0">Condition Acute appendicitis</a></td><td><span title="Codes:{http://terminology.hl7.org/CodeSystem/diagnosis-role AD}">Admission diagnosis</span></td><td>1</td></tr></table><blockquote><p><b>hospitalization</b></p><p><b>Medio de Llegada</b>: <span title="Codes:{https://interoperabilidad.minsal.cl/fhir/ig/urgencia/CodeSystem/MedioDeLlegada 5}">Vehículo particular</span></p><p><b>Consulta por Accidente</b>: false</p><p><b>admitSource</b>: <span title="Codes:{https://interoperabilidad.minsal.cl/fhir/ig/urgencia/CodeSystem/Procedencia 9}">Domicilio</span></p></blockquote><p><b>serviceProvider</b>: <a href="Organization-5491b8d5-e06c-4f89-beb7-75a1989cdc81.html">Organization Hospital Clínico Metropolitano La Florida Dra. Eloísa Díaz Insunza</a></p></div>
        </text>
        <extension url="https://interoperabilidad.minsal.cl/fhir/ig/urgencia/StructureDefinition/Acompanante">
          <valueBoolean value="false"/>
        </extension>
        <identifier>
          <value value="126402-0025"/>
        </identifier>
        <status value="in-progress"/>
        <statusHistory>
          <status value="arrived"/>
          <period>
            <start value="2024-10-25T13:18:00-04:00"/>
          </period>
        </statusHistory>
        <statusHistory>
          <status value="triaged"/>
          <period>
            <start value="2024-10-25T13:30:00-04:00"/>
          </period>
        </statusHistory>
        <statusHistory>
          <status value="in-progress"/>
          <period>
            <start value="2024-10-25T14:12:00-04:00"/>
          </period>
        </statusHistory>
        <class>
          <system value="http://terminology.hl7.org/CodeSystem/v3-ActCode"/>
          <code value="EMER"/>
        </class>
        <priority>
          <coding>
            <system value="https://interoperabilidad.minsal.cl/fhir/ig/urgencia/CodeSystem/categorizacion-ugo"/>
            <code value="C3"/>
            <display value="Atención Prioritaria"/>
          </coding>
        </priority>
        <subject>
          <reference value="Patient/6ec6dc25-4b65-4165-a545-9b796f60b997"/>
        </subject>
        <participant>
          <type>
            <coding>
              <system value="http://terminology.hl7.org/CodeSystem/v3-ParticipationType"/>
              <code value="ADM"/>
            </coding>
          </type>
          <period>
            <start value="2024-10-25T13:18:00-04:00"/>
          </period>
          <individual>
            <reference value="Practitioner/b9f6967f-51b5-49f4-8576-ce9f588523c2"/>
          </individual>
        </participant>
        <participant>
          <type>
            <coding>
              <system value="http://terminology.hl7.org/CodeSystem/participant-type"/>
              <version value="4.0.1"/>
              <code value="emergency"/>
            </coding>
          </type>
          <individual>
            <reference value="RelatedPerson/bb7f34f7-8f4e-42c8-aa84-1f64bf584a05"/>
          </individual>
        </participant>
        <participant>
          <type>
            <coding>
              <system value="https://interoperabilidad.minsal.cl/fhir/ig/urgencia/CodeSystem/TipoParticipanteUrgencia"/>
              <code value="triage"/>
            </coding>
          </type>
          <period>
            <start value="2024-10-25T13:30:00-04:00"/>
          </period>
          <individual>
            <reference value="Practitioner/d04739d3-ba47-4f0f-920f-bcd66b474963"/>
          </individual>
        </participant>
        <participant>
          <type>
            <coding>
              <system value="http://terminology.hl7.org/CodeSystem/v3-ParticipationType"/>
              <code value="ATND"/>
            </coding>
          </type>
          <period>
            <start value="2024-10-25T14:12:00-04:00"/>
          </period>
          <individual>
            <reference value="urn:uuid:190cd208-48b1-4920-a283-6bc37cbde13a"/>
          </individual>
        </participant>
        <participant>
          <type>
            <coding>
              <system value="http://terminology.hl7.org/CodeSystem/v3-ParticipationType"/>
              <code value="CON"/>
            </coding>
          </type>
          <period>
            <start value="2024-10-25T14:29:00-04:00"/>
          </period>
          <individual>
            <reference value="urn:uuid:fbb0e12c-95ec-43f7-bff1-73009b307cb5"/>
          </individual>
        </participant>
        <period>
          <start value="2024-10-25T13:18:00-04:00"/>
        </period>
        <reasonCode>
          <text value="Dolor abdominal de 24 horas de evolución"/>
        </reasonCode>
        <diagnosis>
          <condition>
            <reference value="urn:uuid:e27704ff-fa1a-4750-9d23-36ce567f35b0"/>
          </condition>
          <use>
            <coding>
              <system value="http://terminology.hl7.org/CodeSystem/diagnosis-role"/>
              <code value="AD"/>
            </coding>
          </use>
          <rank value="1"/>
        </diagnosis>
        <hospitalization>
          <extension url="https://interoperabilidad.minsal.cl/fhir/ig/urgencia/StructureDefinition/MedioDeLlegada">
            <valueCodeableConcept>
              <coding>
                <system value="https://interoperabilidad.minsal.cl/fhir/ig/urgencia/CodeSystem/MedioDeLlegada"/>
                <code value="5"/>
                <display value="Vehículo particular"/>
              </coding>
            </valueCodeableConcept>
          </extension>
          <extension url="https://interoperabilidad.minsal.cl/fhir/ig/urgencia/StructureDefinition/ConsultaPorAccidente">
            <valueBoolean value="false"/>
          </extension>
          <admitSource>
            <coding>
              <system value="https://interoperabilidad.minsal.cl/fhir/ig/urgencia/CodeSystem/Procedencia"/>
              <code value="9"/>
              <display value="Domicilio"/>
            </coding>
          </admitSource>
        </hospitalization>
        <serviceProvider>
          <reference value="Organization/5491b8d5-e06c-4f89-beb7-75a1989cdc81"/>
        </serviceProvider>
      </Encounter>
    </resource>
    <request>
      <method value="PUT"/>
      <url value="Encounter?identifier=126402-0025"/>
    </request>
  </entry>
  <entry>
    <fullUrl value="urn:uuid:190cd208-48b1-4920-a283-6bc37cbde13a"/>
    <resource>
      <Practitioner>
        <id value="190cd208-48b1-4920-a283-6bc37cbde13a"/>
        <meta>
          <profile value="https://interoperabilidad.minsal.cl/fhir/ig/urgencia/StructureDefinition/PrestadorProfesional"/>
        </meta>
        <text>
          <status value="generated"/><div xmlns="http://www.w3.org/1999/xhtml"><a name="Practitioner_190cd208-48b1-4920-a283-6bc37cbde13a"> </a><p class="res-header-id"><b>Generated Narrative: Practitioner 190cd208-48b1-4920-a283-6bc37cbde13a</b></p><a name="190cd208-48b1-4920-a283-6bc37cbde13a"> </a><a name="hc190cd208-48b1-4920-a283-6bc37cbde13a"> </a><div style="display: inline-block; background-color: #d9e0e7; padding: 6px; margin: 4px; border: 1px solid #8da1b4; border-radius: 5px; line-height: 60%"><p style="margin-bottom: 0px"/><p style="margin-bottom: 0px">Profile: <a href="StructureDefinition-PrestadorProfesional.html">Prestador Profesional de Urgencia</a></p></div><p><b>identifier</b>: RUN/55555555-5 (use: official, )</p><p><b>name</b>: Luis Gonzalez (Official)</p><p><b>birthDate</b>: 1992-05-26</p><h3>Qualifications</h3><table class="grid"><tr><td style="display: none">-</td><td><b>Identifier</b></td><td><b>Code</b></td></tr><tr><td style="display: none">*</td><td>cert</td><td><span title="Codes:{https://interoperabilidad.minsal.cl/fhir/ig/urgencia/CodeSystem/TituloProfesional 30}">Médico General</span></td></tr></table></div>
        </text>
        <identifier>
          <use value="official"/>
          <type>
            <coding>
              <system value="https://hl7chile.cl/fhir/ig/clcore/CodeSystem/CSTipoIdentificador"/>
              <code value="01"/>
            </coding>
          </type>
          <system value="http://www.registrocivil.cl"/>
          <value value="55555555-5"/>
        </identifier>
        <name>
          <use value="official"/>
          <family value="Gonzalez">
            <extension url="https://hl7chile.cl/fhir/ig/clcore/StructureDefinition/SegundoApellido">
              <valueString value="Nuñez"/>
            </extension>
          </family>
          <given value="Luis"/>
        </name>
        <birthDate value="1992-05-26"/>
        <qualification>
          <identifier>
            <value value="cert"/>
          </identifier>
          <code>
            <coding>
              <system value="https://interoperabilidad.minsal.cl/fhir/ig/urgencia/CodeSystem/TituloProfesional"/>
              <code value="30"/>
              <display value="MÉDICO GENERAL"/>
            </coding>
            <text value="Médico General"/>
          </code>
        </qualification>
      </Practitioner>
    </resource>
    <request>
      <method value="POST"/>
      <url value="Practitioner"/>
      <ifNoneExist value="identifier=55555555-5"/>
    </request>
  </entry>
  <entry>
    <fullUrl value="urn:uuid:fbb0e12c-95ec-43f7-bff1-73009b307cb5"/>
    <resource>
      <Practitioner>
        <id value="fbb0e12c-95ec-43f7-bff1-73009b307cb5"/>
        <meta>
          <profile value="https://interoperabilidad.minsal.cl/fhir/ig/urgencia/StructureDefinition/PrestadorProfesional"/>
        </meta>
        <text>
          <status value="extensions"/><div xmlns="http://www.w3.org/1999/xhtml"><a name="Practitioner_fbb0e12c-95ec-43f7-bff1-73009b307cb5"> </a><p class="res-header-id"><b>Generated Narrative: Practitioner fbb0e12c-95ec-43f7-bff1-73009b307cb5</b></p><a name="fbb0e12c-95ec-43f7-bff1-73009b307cb5"> </a><a name="hcfbb0e12c-95ec-43f7-bff1-73009b307cb5"> </a><div style="display: inline-block; background-color: #d9e0e7; padding: 6px; margin: 4px; border: 1px solid #8da1b4; border-radius: 5px; line-height: 60%"><p style="margin-bottom: 0px"/><p style="margin-bottom: 0px">Profile: <a href="StructureDefinition-PrestadorProfesional.html">Prestador Profesional de Urgencia</a></p></div><p><b>identifier</b>: RUN/33333333-3 (use: official, )</p><p><b>name</b>: Maria Fernandez (Official)</p><p><b>birthDate</b>: 1995-09-12</p><blockquote><p><b>qualification</b></p><p><b>Mención profesional añadida al título profesional</b>: Cirugía General</p><p><b>identifier</b>: cert</p><p><b>code</b>: <span title="Codes:{https://interoperabilidad.minsal.cl/fhir/ig/urgencia/CodeSystem/TituloProfesional 1}">Médico Cirujano</span></p></blockquote><blockquote><p><b>qualification</b></p><p><b>identifier</b>: esp</p><p><b>code</b>: <span title="Codes:{https://interoperabilidad.minsal.cl/fhir/ig/urgencia/CodeSystem/EspecialidadMedica 18}">Gastroenterología Adulto</span></p></blockquote></div>
        </text>
        <identifier>
          <use value="official"/>
          <type>
            <coding>
              <system value="https://hl7chile.cl/fhir/ig/clcore/CodeSystem/CSTipoIdentificador"/>
              <code value="01"/>
            </coding>
          </type>
          <system value="http://www.registrocivil.cl"/>
          <value value="33333333-3"/>
        </identifier>
        <name>
          <use value="official"/>
          <family value="Fernandez">
            <extension url="https://hl7chile.cl/fhir/ig/clcore/StructureDefinition/SegundoApellido">
              <valueString value="Alvarez"/>
            </extension>
          </family>
          <given value="Maria"/>
        </name>
        <birthDate value="1995-09-12"/>
        <qualification>
          <extension url="https://interoperabilidad.minsal.cl/fhir/ig/urgencia/StructureDefinition/Mencion">
            <valueString value="Cirugía General"/>
          </extension>
          <identifier>
            <value value="cert"/>
          </identifier>
          <code>
            <coding>
              <system value="https://interoperabilidad.minsal.cl/fhir/ig/urgencia/CodeSystem/TituloProfesional"/>
              <code value="1"/>
              <display value="MÉDICO CIRUJANO"/>
            </coding>
            <text value="Médico Cirujano"/>
          </code>
        </qualification>
        <qualification>
          <identifier>
            <value value="esp"/>
          </identifier>
          <code>
            <coding>
              <system value="https://interoperabilidad.minsal.cl/fhir/ig/urgencia/CodeSystem/EspecialidadMedica"/>
              <code value="18"/>
              <display value="GASTROENTEROLOGÍA ADULTO"/>
            </coding>
            <text value="Gastroenterología Adulto"/>
          </code>
        </qualification>
      </Practitioner>
    </resource>
    <request>
      <method value="POST"/>
      <url value="Practitioner"/>
      <ifNoneExist value="identifier=33333333-3"/>
    </request>
  </entry>
  <entry>
    <fullUrl value="urn:uuid:7ea8cb9a-fc10-44ad-8c52-de03c4517b30"/>
    <resource>
      <Observation>
        <id value="7ea8cb9a-fc10-44ad-8c52-de03c4517b30"/>
        <meta>
          <profile value="https://interoperabilidad.minsal.cl/fhir/ig/urgencia/StructureDefinition/ObservacionAnamnesis"/>
        </meta>
        <text>
          <status value="generated"/><div xmlns="http://www.w3.org/1999/xhtml"><a name="Observation_7ea8cb9a-fc10-44ad-8c52-de03c4517b30"> </a><p class="res-header-id"><b>Generated Narrative: Observation 7ea8cb9a-fc10-44ad-8c52-de03c4517b30</b></p><a name="7ea8cb9a-fc10-44ad-8c52-de03c4517b30"> </a><a name="hc7ea8cb9a-fc10-44ad-8c52-de03c4517b30"> </a><div style="display: inline-block; background-color: #d9e0e7; padding: 6px; margin: 4px; border: 1px solid #8da1b4; border-radius: 5px; line-height: 60%"><p style="margin-bottom: 0px"/><p style="margin-bottom: 0px">Profile: <a href="StructureDefinition-ObservacionAnamnesis.html">Observación Anamnesis</a></p></div><p><b>status</b>: Registered</p><p><b>code</b>: <span title="Codes:{http://snomed.info/sct 84100007}">Anamnesis</span></p><p><b>subject</b>: <a href="Patient-6ec6dc25-4b65-4165-a545-9b796f60b997.html">Maria Josefína Perez Gonzalez(official) Female, DoB: 1974-12-25 ( Rol Único Nacional: 90000000-6 (use: official, ))</a></p><p><b>encounter</b>: <a href="Bundle-Ej1BundleAdmision.html#urn-uuid-d1391b7b-302a-49f8-a908-8116599e137e">Encounter: extension = false; identifier = 126402-0025; status = arrived; class = emergency (ActCode#EMER); priority = Sin Categorizar; period = 2024-10-25 13:18:00-0400 --&gt; (ongoing)</a></p><p><b>effective</b>: 2024-10-25 14:18:00-0400</p><p><b>performer</b>: <a href="Bundle-EjBundleAtencion.html#urn-uuid-190cd208-48b1-4920-a283-6bc37cbde13a">Practitioner Luis Gonzalez (official)</a></p><p><b>value</b>: MOTIVO DE CONSULTA:
Dolor abdominal de 24 horas de evolución.

HISTORIA ACTUAL:
Inicio en región periumbilical hace 24 horas, posteriormente migra a fosa iliaca derecha.
Intensidad progresiva, EVA actual 8/10.
Asociado a:
- Anorexia desde inicio de síntomas
- Náuseas y dos episodios de vómitos
- Sensación febril no cuantificada
Dolor aumenta al caminar y con movimientos bruscos.
No reporta diarrea ni síntomas urinarios.
Automedicación con Paracetamol sin alivio.

ANTECEDENTES:
Mórbidos: No
Quirúrgicos: No
Alergias: No
Medicamentos habituales: No
Última ingesta: &gt;12 horas (anorexia)</p></div>
        </text>
        <status value="registered"/>
        <code>
          <coding>
            <system value="http://snomed.info/sct"/>
            <code value="84100007"/>
          </coding>
          <text value="Anamnesis"/>
        </code>
        <subject>
          <reference value="Patient/6ec6dc25-4b65-4165-a545-9b796f60b997"/>
        </subject>
        <encounter>
          <reference value="urn:uuid:d1391b7b-302a-49f8-a908-8116599e137e"/>
        </encounter>
        <effectiveDateTime value="2024-10-25T14:18:00-04:00"/>
        <performer>
          <reference value="urn:uuid:190cd208-48b1-4920-a283-6bc37cbde13a"/>
        </performer>
        <valueString value="MOTIVO DE CONSULTA:&#xA;Dolor abdominal de 24 horas de evolución.&#xA;&#xA;HISTORIA ACTUAL:&#xA;Inicio en región periumbilical hace 24 horas, posteriormente migra a fosa iliaca derecha.&#xA;Intensidad progresiva, EVA actual 8/10.&#xA;Asociado a:&#xA;- Anorexia desde inicio de síntomas&#xA;- Náuseas y dos episodios de vómitos&#xA;- Sensación febril no cuantificada&#xA;Dolor aumenta al caminar y con movimientos bruscos.&#xA;No reporta diarrea ni síntomas urinarios.&#xA;Automedicación con Paracetamol sin alivio.&#xA;&#xA;ANTECEDENTES:&#xA;Mórbidos: No&#xA;Quirúrgicos: No&#xA;Alergias: No&#xA;Medicamentos habituales: No&#xA;Última ingesta: &gt;12 horas (anorexia)"/>
      </Observation>
    </resource>
    <request>
      <method value="POST"/>
      <url value="Observation"/>
    </request>
  </entry>
  <entry>
    <fullUrl value="urn:uuid:e27704ff-fa1a-4750-9d23-36ce567f35b0"/>
    <resource>
      <Condition>
        <id value="e27704ff-fa1a-4750-9d23-36ce567f35b0"/>
        <meta>
          <profile value="https://interoperabilidad.minsal.cl/fhir/ig/urgencia/StructureDefinition/ConditionDiagnosticoLE"/>
        </meta>
        <text>
          <status value="generated"/><div xmlns="http://www.w3.org/1999/xhtml"><a name="Condition_e27704ff-fa1a-4750-9d23-36ce567f35b0"> </a><p class="res-header-id"><b>Generated Narrative: Condition e27704ff-fa1a-4750-9d23-36ce567f35b0</b></p><a name="e27704ff-fa1a-4750-9d23-36ce567f35b0"> </a><a name="hce27704ff-fa1a-4750-9d23-36ce567f35b0"> </a><div style="display: inline-block; background-color: #d9e0e7; padding: 6px; margin: 4px; border: 1px solid #8da1b4; border-radius: 5px; line-height: 60%"><p style="margin-bottom: 0px"/><p style="margin-bottom: 0px">Profile: <a href="StructureDefinition-ConditionDiagnosticoLE.html">Condition Diagnostico</a></p></div><p><b>clinicalStatus</b>: <span title="Codes:{http://terminology.hl7.org/CodeSystem/condition-clinical active}">Active</span></p><p><b>verificationStatus</b>: <span title="Codes:{http://terminology.hl7.org/CodeSystem/condition-ver-status provisional}">Provisional</span></p><p><b>category</b>: <span title="Codes:{http://terminology.hl7.org/CodeSystem/condition-category encounter-diagnosis}">Encounter Diagnosis</span></p><p><b>code</b>: <span title="Codes:{http://hl7.org/fhir/sid/icd-10 K35}">Acute appendicitis</span></p><p><b>subject</b>: <a href="Patient-6ec6dc25-4b65-4165-a545-9b796f60b997.html">Maria Josefína Perez Gonzalez(official) Female, DoB: 1974-12-25 ( Rol Único Nacional: 90000000-6 (use: official, ))</a></p><p><b>encounter</b>: <a href="Bundle-Ej1BundleAdmision.html#urn-uuid-d1391b7b-302a-49f8-a908-8116599e137e">Encounter: extension = false; identifier = 126402-0025; status = arrived; class = emergency (ActCode#EMER); priority = Sin Categorizar; period = 2024-10-25 13:18:00-0400 --&gt; (ongoing)</a></p><p><b>recorder</b>: <a href="Bundle-EjBundleAtencion.html#urn-uuid-190cd208-48b1-4920-a283-6bc37cbde13a">Practitioner Luis Gonzalez (official)</a></p><p><b>note</b>: </p><blockquote><div><p>Paciente con dolor abdominal agudo, compatible con apendicitis aguda.</p>
</div></blockquote></div>
        </text>
        <clinicalStatus>
          <coding>
            <system value="http://terminology.hl7.org/CodeSystem/condition-clinical"/>
            <code value="active"/>
          </coding>
        </clinicalStatus>
        <verificationStatus>
          <coding>
            <system value="http://terminology.hl7.org/CodeSystem/condition-ver-status"/>
            <code value="provisional"/>
          </coding>
        </verificationStatus>
        <category>
          <coding>
            <system value="http://terminology.hl7.org/CodeSystem/condition-category"/>
            <code value="encounter-diagnosis"/>
          </coding>
        </category>
        <code>
          <coding>
            <system value="http://hl7.org/fhir/sid/icd-10"/>
            <code value="K35"/>
            <display value="Acute appendicitis"/>
          </coding>
        </code>
        <subject>
          <reference value="Patient/6ec6dc25-4b65-4165-a545-9b796f60b997"/>
        </subject>
        <encounter>
          <reference value="urn:uuid:d1391b7b-302a-49f8-a908-8116599e137e"/>
        </encounter>
        <recorder>
          <reference value="urn:uuid:190cd208-48b1-4920-a283-6bc37cbde13a"/>
        </recorder>
        <note>
          <text value="Paciente con dolor abdominal agudo, compatible con apendicitis aguda."/>
        </note>
      </Condition>
    </resource>
    <request>
      <method value="POST"/>
      <url value="Condition"/>
    </request>
  </entry>
</Bundle>