{
  "resourceType" : "Bundle",
  "id" : "EjBundleCierre",
  "meta" : {
    "profile" : ["https://interoperabilidad.minsal.cl/fhir/ig/quirurgico/StructureDefinition/BundleCierreLE"]
  },
  "type" : "transaction",
  "entry" : [{
    "fullUrl" : "urn:uuid:38a17703-0731-4c3f-88fd-1202dc99d7ce",
    "resource" : {
      "resourceType" : "ServiceRequest",
      "id" : "38a17703-0731-4c3f-88fd-1202dc99d7ce",
      "meta" : {
        "profile" : ["https://interoperabilidad.minsal.cl/fhir/ig/quirurgico/StructureDefinition/ServiceRequestCirugiaLE"]
      },
      "text" : {
        "status" : "extensions",
        "div" : "<div xmlns=\"http://www.w3.org/1999/xhtml\"><a name=\"ServiceRequest_38a17703-0731-4c3f-88fd-1202dc99d7ce\"> </a><p class=\"res-header-id\"><b>Generated Narrative: ServiceRequest 38a17703-0731-4c3f-88fd-1202dc99d7ce</b></p><a name=\"38a17703-0731-4c3f-88fd-1202dc99d7ce\"> </a><a name=\"hc38a17703-0731-4c3f-88fd-1202dc99d7ce\"> </a><a name=\"38a17703-0731-4c3f-88fd-1202dc99d7ce-es-CL\"> </a><p><b>Motivo Cierre Solicitud Cirugía</b>: <span title=\"Codes:{https://interoperabilidad.minsal.cl/fhir/ig/quirurgico/CodeSystem/CSMotivoCierreSolicitudCirugia 3}\">Corresponde a la realización del examen procedimiento ejecutado (2)</span></p><p><b>Extension String Fundamento Priorizacion</b>: Paciente con dolor abdominal crónico</p><p><b>Requirió Comite</b>: false</p><p><b>Extension Tipo Priorización</b>: <span title=\"Codes:{https://interoperabilidad.minsal.cl/fhir/ig/quirurgico/CodeSystem/CSTipoPriorizacion 5}\">Usuarios con dos o más años en LE</span></p><p><b>identifier</b>: CIR-2024-0001</p><p><b>status</b>: Completed</p><p><b>intent</b>: Order</p><p><b>category</b>: <span title=\"Codes:{https://interoperabilidad.minsal.cl/fhir/ig/quirurgico/CodeSystem/CSTipoCirugiaPropuesta 1}\">Cirugía Mayor Electiva</span></p><p><b>priority</b>: Routine</p><p><b>code</b>: <span title=\"Codes:{http://snomed.info/sct 39607008}\">Lung</span></p><p><b>subject</b>: <a href=\"Patient-22e862c5-6d96-44ec-869c-dba001058cb3.html\">Juan Pérez (official) Male, DoB: 1980-01-01 ( RUN: 4444444-4)</a></p><p><b>encounter</b>: <a href=\"Encounter-23b7f034-a998-44d7-9be4-0281be8222c0.html\">Encounter: identifier = ENC-20241130-001; status = finished; class = Presencial (Modalidad Atencion Codigo#1); type = Nueva; period = 2024-11-30 10:00:00-0400 --&gt; (ongoing)</a></p><p><b>authoredOn</b>: 2024-12-02 10:00:00-0400</p><p><b>requester</b>: <a href=\"PractitionerRole-96f2b566-b17b-4e4e-ada0-3986748990ee.html\">PractitionerRole Indicador</a></p><p><b>performer</b>: <a href=\"Bundle-EjBundleCierre.html#urn-uuid-5a4ca080-8d59-4409-92f3-e6fc1eb855d6\">Bundle: type = transaction</a></p><p><b>reasonReference</b>: <a href=\"Condition-b97a87f6-060d-48de-9e4d-db93518fd278.html\">Condition Other and unspecified ventral hernia without obstruction or gangrene</a></p></div>"
      },
      "extension" : [{
        "url" : "https://interoperabilidad.minsal.cl/fhir/ig/quirurgico/StructureDefinition/ExtensionMotivoCierreSolicitudCirugia",
        "valueCodeableConcept" : {
          "coding" : [{
            "system" : "https://interoperabilidad.minsal.cl/fhir/ig/quirurgico/CodeSystem/CSMotivoCierreSolicitudCirugia",
            "code" : "3",
            "display" : "Corresponde a la realización del examen procedimiento ejecutado (2)"
          }]
        }
      },
      {
        "url" : "https://interoperabilidad.minsal.cl/fhir/ig/quirurgico/StructureDefinition/ExtensionStringFundamentoPriorizacion",
        "valueString" : "Paciente con dolor abdominal crónico"
      },
      {
        "url" : "https://interoperabilidad.minsal.cl/fhir/ig/quirurgico/StructureDefinition/RequirioComite",
        "valueBoolean" : false
      },
      {
        "url" : "https://interoperabilidad.minsal.cl/fhir/ig/quirurgico/StructureDefinition/ExtensionTipoPriorizacion",
        "valueCodeableConcept" : {
          "coding" : [{
            "system" : "https://interoperabilidad.minsal.cl/fhir/ig/quirurgico/CodeSystem/CSTipoPriorizacion",
            "code" : "5",
            "display" : "Usuarios con dos o más años en LE"
          }]
        }
      }],
      "identifier" : [{
        "value" : "CIR-2024-0001"
      }],
      "status" : "completed",
      "intent" : "order",
      "category" : [{
        "coding" : [{
          "system" : "https://interoperabilidad.minsal.cl/fhir/ig/quirurgico/CodeSystem/CSTipoCirugiaPropuesta",
          "code" : "1",
          "display" : "Cirugía Mayor Electiva"
        }]
      }],
      "priority" : "routine",
      "code" : {
        "coding" : [{
          "system" : "http://snomed.info/sct",
          "code" : "39607008"
        }]
      },
      "subject" : {
        "reference" : "Patient/22e862c5-6d96-44ec-869c-dba001058cb3"
      },
      "encounter" : {
        "reference" : "Encounter/23b7f034-a998-44d7-9be4-0281be8222c0"
      },
      "authoredOn" : "2024-12-02T10:00:00-04:00",
      "requester" : {
        "reference" : "PractitionerRole/96f2b566-b17b-4e4e-ada0-3986748990ee"
      },
      "performer" : [{
        "reference" : "urn:uuid:5a4ca080-8d59-4409-92f3-e6fc1eb855d6"
      }],
      "reasonReference" : [{
        "reference" : "Condition/b97a87f6-060d-48de-9e4d-db93518fd278"
      }]
    },
    "request" : {
      "method" : "PUT",
      "url" : "ServiceRequest?identifier=CIR-2024-0001"
    }
  },
  {
    "fullUrl" : "urn:uuid:2d5d9db4-6ade-43c9-b4f5-cc68b9c7f210",
    "resource" : {
      "resourceType" : "Practitioner",
      "id" : "2d5d9db4-6ade-43c9-b4f5-cc68b9c7f210",
      "meta" : {
        "profile" : ["https://interoperabilidad.minsal.cl/fhir/ig/quirurgico/StructureDefinition/PractitionerProfesionalLE"]
      },
      "text" : {
        "status" : "generated",
        "div" : "<div xmlns=\"http://www.w3.org/1999/xhtml\"><a name=\"Practitioner_2d5d9db4-6ade-43c9-b4f5-cc68b9c7f210\"> </a><p class=\"res-header-id\"><b>Generated Narrative: Practitioner 2d5d9db4-6ade-43c9-b4f5-cc68b9c7f210</b></p><a name=\"2d5d9db4-6ade-43c9-b4f5-cc68b9c7f210\"> </a><a name=\"hc2d5d9db4-6ade-43c9-b4f5-cc68b9c7f210\"> </a><a name=\"2d5d9db4-6ade-43c9-b4f5-cc68b9c7f210-es-CL\"> </a><p><b>identifier</b>: RUN/55555555-5\u00a0(use:\u00a0official,\u00a0)</p><p><b>name</b>: Paula Hernandez (Official)</p><p><b>birthDate</b>: 1990-05-15</p><h3>Qualifications</h3><table class=\"grid\"><tr><td style=\"display: none\">-</td><td><b>Identifier</b></td><td><b>Code</b></td></tr><tr><td style=\"display: none\">*</td><td>cert</td><td><span title=\"Codes:{https://interoperabilidad.minsal.cl/fhir/ig/quirurgico/CodeSystem/CSTituloProfesional 3}\">Enfermera</span></td></tr></table></div>"
      },
      "identifier" : [{
        "use" : "official",
        "type" : {
          "coding" : [{
            "system" : "https://hl7chile.cl/fhir/ig/clcore/CodeSystem/CSTipoIdentificador",
            "code" : "01"
          }]
        },
        "system" : "http://www.registrocivil.cl",
        "value" : "55555555-5"
      }],
      "name" : [{
        "use" : "official",
        "family" : "Hernandez",
        "_family" : {
          "extension" : [{
            "url" : "https://hl7chile.cl/fhir/ig/clcore/StructureDefinition/SegundoApellido",
            "valueString" : "Navarro"
          }]
        },
        "given" : ["Paula"]
      }],
      "birthDate" : "1990-05-15",
      "qualification" : [{
        "identifier" : [{
          "value" : "cert"
        }],
        "code" : {
          "coding" : [{
            "system" : "https://interoperabilidad.minsal.cl/fhir/ig/quirurgico/CodeSystem/CSTituloProfesional",
            "code" : "3",
            "display" : "ENFERMERAS(OS)"
          }],
          "text" : "Enfermera"
        }
      }]
    },
    "request" : {
      "method" : "POST",
      "url" : "Practitioner",
      "ifNoneExist" : "identifier=http://www.registrocivil.cl|55555555-5"
    }
  },
  {
    "fullUrl" : "urn:uuid:5a4ca080-8d59-4409-92f3-e6fc1eb855d6",
    "resource" : {
      "resourceType" : "PractitionerRole",
      "id" : "5a4ca080-8d59-4409-92f3-e6fc1eb855d6",
      "meta" : {
        "profile" : ["https://interoperabilidad.minsal.cl/fhir/ig/quirurgico/StructureDefinition/PractitionerRoleLE"]
      },
      "text" : {
        "status" : "generated",
        "div" : "<div xmlns=\"http://www.w3.org/1999/xhtml\"><a name=\"PractitionerRole_5a4ca080-8d59-4409-92f3-e6fc1eb855d6\"> </a><p class=\"res-header-id\"><b>Generated Narrative: PractitionerRole 5a4ca080-8d59-4409-92f3-e6fc1eb855d6</b></p><a name=\"5a4ca080-8d59-4409-92f3-e6fc1eb855d6\"> </a><a name=\"hc5a4ca080-8d59-4409-92f3-e6fc1eb855d6\"> </a><a name=\"5a4ca080-8d59-4409-92f3-e6fc1eb855d6-es-CL\"> </a><p><b>practitioner</b>: <a href=\"Bundle-EjBundleAgendarCirugia.html#urn-uuid-2d5d9db4-6ade-43c9-b4f5-cc68b9c7f210\">Bundle: type = transaction</a></p><p><b>organization</b>: <a href=\"Organization-5491b8d5-e06c-4f89-beb7-75a1989cdc81.html\">Organization Hospital Clínico Metropolitano La Florida Dra. Eloísa Díaz Insunza</a></p><p><b>code</b>: <span title=\"Codes:{https://interoperabilidad.minsal.cl/fhir/ig/quirurgico/CodeSystem/CSPractitionerTipoRolLE terminador}\">Terminador</span></p></div>"
      },
      "practitioner" : {
        "reference" : "urn:uuid:2d5d9db4-6ade-43c9-b4f5-cc68b9c7f210"
      },
      "organization" : {
        "reference" : "Organization/5491b8d5-e06c-4f89-beb7-75a1989cdc81"
      },
      "code" : [{
        "coding" : [{
          "system" : "https://interoperabilidad.minsal.cl/fhir/ig/quirurgico/CodeSystem/CSPractitionerTipoRolLE",
          "code" : "terminador"
        }]
      }]
    },
    "request" : {
      "method" : "POST",
      "url" : "PractitionerRole",
      "ifNoneExist" : "practitioner.identifier=http://www.registrocivil.cl|33333333-3&role=https://interoperabilidad.minsal.cl/fhir/ig/quirurgico/CodeSystem/CSPractitionerTipoRolLE|terminador"
    }
  }]
}