<?xml version="1.0" encoding="UTF-8"?>

<Bundle xmlns="http://hl7.org/fhir">
  <id value="EjBundleCirugia"/>
  <meta>
    <profile value="https://interoperabilidad.minsal.cl/fhir/ig/quirurgico/StructureDefinition/BundleCirugiaLE"/>
  </meta>
  <type value="transaction"/>
  <entry>
    <fullUrl value="urn:uuid:abfca780-745d-4c35-ae8a-fd0dbc3a9b16"/>
    <resource>
      <Procedure>
        <id value="abfca780-745d-4c35-ae8a-fd0dbc3a9b16"/>
        <meta>
          <profile value="https://interoperabilidad.minsal.cl/fhir/ig/quirurgico/StructureDefinition/ProcedureCirugiaLE"/>
        </meta>
        <text>
          <status value="generated"/><div xmlns="http://www.w3.org/1999/xhtml"><a name="Procedure_abfca780-745d-4c35-ae8a-fd0dbc3a9b16"> </a><p class="res-header-id"><b>Generated Narrative: Procedure abfca780-745d-4c35-ae8a-fd0dbc3a9b16</b></p><a name="abfca780-745d-4c35-ae8a-fd0dbc3a9b16"> </a><a name="hcabfca780-745d-4c35-ae8a-fd0dbc3a9b16"> </a><a name="abfca780-745d-4c35-ae8a-fd0dbc3a9b16-es-CL"> </a><p><b>basedOn</b>: <a href="ServiceRequest-38a17703-0731-4c3f-88fd-1202dc99d7ce.html">ServiceRequest Lung</a></p><p><b>status</b>: Completed</p><p><b>category</b>: <span title="Codes:{https://interoperabilidad.minsal.cl/fhir/ig/quirurgico/CodeSystem/CSTipoCirugiaPropuesta 1}">Cirugía Mayor Electiva</span></p><p><b>code</b>: <span title="Codes:{http://snomed.info/sct 39607008}">Cirugía de hernia ventral</span></p><p><b>subject</b>: <a href="Patient-22e862c5-6d96-44ec-869c-dba001058cb3.html">Juan Pérez (official) Male, DoB: 1980-01-01 ( RUN: 4444444-4)</a></p><p><b>performed</b>: 2024-12-02 10:00:00-0400</p><h3>Performers</h3><table class="grid"><tr><td style="display: none">-</td><td><b>Actor</b></td></tr><tr><td style="display: none">*</td><td><a href="Bundle-EjBundleCirugia.html#urn-uuid-4d1c4f8b-1f89-47a3-a765-fdfe5935a3aa">Bundle: type = transaction</a></td></tr></table><p><b>outcome</b>: <span title="Codes:{https://interoperabilidad.minsal.cl/fhir/ig/quirurgico/CodeSystem/CSCondicionSalidaCirugia 1}">Vivo</span></p></div>
        </text>
        <basedOn>
          <reference value="ServiceRequest/38a17703-0731-4c3f-88fd-1202dc99d7ce"/>
        </basedOn>
        <status value="completed"/>
        <category>
          <coding>
            <system value="https://interoperabilidad.minsal.cl/fhir/ig/quirurgico/CodeSystem/CSTipoCirugiaPropuesta"/>
            <code value="1"/>
            <display value="Cirugía Mayor Electiva"/>
          </coding>
        </category>
        <code>
          <coding>
            <system value="http://snomed.info/sct"/>
            <code value="39607008"/>
          </coding>
          <text value="Cirugía de hernia ventral"/>
        </code>
        <subject>
          <reference value="Patient/22e862c5-6d96-44ec-869c-dba001058cb3"/>
        </subject>
        <performedDateTime value="2024-12-02T10:00:00-04:00"/>
        <performer>
          <actor>
            <reference value="urn:uuid:4d1c4f8b-1f89-47a3-a765-fdfe5935a3aa"/>
          </actor>
        </performer>
        <outcome>
          <coding>
            <system value="https://interoperabilidad.minsal.cl/fhir/ig/quirurgico/CodeSystem/CSCondicionSalidaCirugia"/>
            <code value="1"/>
            <display value="Vivo"/>
          </coding>
        </outcome>
      </Procedure>
    </resource>
    <request>
      <method value="POST"/>
      <url value="Procedure"/>
    </request>
  </entry>
  <entry>
    <fullUrl value="urn:uuid:fbb0e12c-95ec-43f7-bff1-73009b307cb5"/>
    <resource>
      <Practitioner>
        <id value="fbb0e12c-95ec-43f7-bff1-73009b307cb5"/>
        <meta>
          <profile value="https://interoperabilidad.minsal.cl/fhir/ig/quirurgico/StructureDefinition/PractitionerProfesionalLE"/>
        </meta>
        <text>
          <status value="extensions"/><div xmlns="http://www.w3.org/1999/xhtml"><a name="Practitioner_fbb0e12c-95ec-43f7-bff1-73009b307cb5"> </a><p class="res-header-id"><b>Generated Narrative: Practitioner fbb0e12c-95ec-43f7-bff1-73009b307cb5</b></p><a name="fbb0e12c-95ec-43f7-bff1-73009b307cb5"> </a><a name="hcfbb0e12c-95ec-43f7-bff1-73009b307cb5"> </a><a name="fbb0e12c-95ec-43f7-bff1-73009b307cb5-es-CL"> </a><p><b>identifier</b>: RUN/33333333-3 (use: official, )</p><p><b>name</b>: Maria Fernandez (Official)</p><p><b>birthDate</b>: 1995-09-12</p><blockquote><p><b>qualification</b></p><p><b>Mención profesional añadida al título profesional</b>: Cirugía Digestiva</p><p><b>identifier</b>: cert</p><p><b>code</b>: <span title="Codes:{https://interoperabilidad.minsal.cl/fhir/ig/quirurgico/CodeSystem/CSTituloProfesional 1}">Médico Cirujano</span></p></blockquote><blockquote><p><b>qualification</b></p><p><b>identifier</b>: esp</p><p><b>code</b>: <span title="Codes:{https://interoperabilidad.minsal.cl/fhir/ig/quirurgico/CodeSystem/CSEspecialidadMed 18}">Gastroenterología Adulto</span></p></blockquote></div>
        </text>
        <identifier>
          <use value="official"/>
          <type>
            <coding>
              <system value="https://hl7chile.cl/fhir/ig/clcore/CodeSystem/CSTipoIdentificador"/>
              <code value="01"/>
            </coding>
          </type>
          <system value="http://www.registrocivil.cl"/>
          <value value="33333333-3"/>
        </identifier>
        <name>
          <use value="official"/>
          <family value="Fernandez">
            <extension url="https://hl7chile.cl/fhir/ig/clcore/StructureDefinition/SegundoApellido">
              <valueString value="Alvarez"/>
            </extension>
          </family>
          <given value="Maria"/>
        </name>
        <birthDate value="1995-09-12"/>
        <qualification>
          <extension url="https://interoperabilidad.minsal.cl/fhir/ig/quirurgico/StructureDefinition/Mencion">
            <valueString value="Cirugía Digestiva"/>
          </extension>
          <identifier>
            <value value="cert"/>
          </identifier>
          <code>
            <coding>
              <system value="https://interoperabilidad.minsal.cl/fhir/ig/quirurgico/CodeSystem/CSTituloProfesional"/>
              <code value="1"/>
              <display value="MÉDICO CIRUJANO"/>
            </coding>
            <text value="Médico Cirujano"/>
          </code>
        </qualification>
        <qualification>
          <identifier>
            <value value="esp"/>
          </identifier>
          <code>
            <coding>
              <system value="https://interoperabilidad.minsal.cl/fhir/ig/quirurgico/CodeSystem/CSEspecialidadMed"/>
              <code value="18"/>
              <display value="GASTROENTEROLOGÍA ADULTO"/>
            </coding>
            <text value="Gastroenterología Adulto"/>
          </code>
        </qualification>
      </Practitioner>
    </resource>
    <request>
      <method value="POST"/>
      <url value="Practitioner"/>
      <ifNoneExist value="identifier=http://www.registrocivil.cl|33333333-3"/>
    </request>
  </entry>
  <entry>
    <fullUrl value="urn:uuid:4d1c4f8b-1f89-47a3-a765-fdfe5935a3aa"/>
    <resource>
      <PractitionerRole>
        <id value="4d1c4f8b-1f89-47a3-a765-fdfe5935a3aa"/>
        <meta>
          <profile value="https://interoperabilidad.minsal.cl/fhir/ig/quirurgico/StructureDefinition/PractitionerRoleLE"/>
        </meta>
        <text>
          <status value="generated"/><div xmlns="http://www.w3.org/1999/xhtml"><a name="PractitionerRole_4d1c4f8b-1f89-47a3-a765-fdfe5935a3aa"> </a><p class="res-header-id"><b>Generated Narrative: PractitionerRole 4d1c4f8b-1f89-47a3-a765-fdfe5935a3aa</b></p><a name="4d1c4f8b-1f89-47a3-a765-fdfe5935a3aa"> </a><a name="hc4d1c4f8b-1f89-47a3-a765-fdfe5935a3aa"> </a><a name="4d1c4f8b-1f89-47a3-a765-fdfe5935a3aa-es-CL"> </a><p><b>practitioner</b>: <a href="Bundle-EjBundleAtender.html#urn-uuid-fbb0e12c-95ec-43f7-bff1-73009b307cb5">Bundle: type = transaction</a></p><p><b>organization</b>: <a href="Organization-5491b8d5-e06c-4f89-beb7-75a1989cdc81.html">Organization Hospital Clínico Metropolitano La Florida Dra. Eloísa Díaz Insunza</a></p><p><b>code</b>: <span title="Codes:{https://interoperabilidad.minsal.cl/fhir/ig/quirurgico/CodeSystem/CSPractitionerTipoRolLE atendedor}">Atendedor</span></p></div>
        </text>
        <practitioner>
          <reference value="urn:uuid:fbb0e12c-95ec-43f7-bff1-73009b307cb5"/>
        </practitioner>
        <organization>
          <reference value="Organization/5491b8d5-e06c-4f89-beb7-75a1989cdc81"/>
        </organization>
        <code>
          <coding>
            <system value="https://interoperabilidad.minsal.cl/fhir/ig/quirurgico/CodeSystem/CSPractitionerTipoRolLE"/>
            <code value="atendedor"/>
          </coding>
        </code>
      </PractitionerRole>
    </resource>
    <request>
      <method value="POST"/>
      <url value="PractitionerRole"/>
      <ifNoneExist value="practitioner.identifier=http://www.registrocivil.cl|33333333-3&amp;role=https://interoperabilidad.minsal.cl/fhir/ig/quirurgico/CodeSystem/CSPractitionerTipoRolLE|atendedor"/>
    </request>
  </entry>
</Bundle>