<?xml version="1.0" encoding="UTF-8"?>

<Bundle xmlns="http://hl7.org/fhir">
  <id value="EjBundleAgendarEntrevista"/>
  <meta>
    <profile value="https://interoperabilidad.minsal.cl/fhir/ig/quirurgico/StructureDefinition/BundleAgendarEntrevistaLE"/>
  </meta>
  <type value="transaction"/>
  <entry>
    <fullUrl value="urn:uuid:76adaeb4-4885-4aa6-96c1-13b9df9a61d7"/>
    <resource>
      <Appointment>
        <id value="76adaeb4-4885-4aa6-96c1-13b9df9a61d7"/>
        <meta>
          <profile value="https://interoperabilidad.minsal.cl/fhir/ig/quirurgico/StructureDefinition/AppointmentAgendarLE"/>
        </meta>
        <text>
          <status value="extensions"/><div xmlns="http://www.w3.org/1999/xhtml"><a name="Appointment_76adaeb4-4885-4aa6-96c1-13b9df9a61d7"> </a><p class="res-header-id"><b>Generated Narrative: Appointment 76adaeb4-4885-4aa6-96c1-13b9df9a61d7</b></p><a name="76adaeb4-4885-4aa6-96c1-13b9df9a61d7"> </a><a name="hc76adaeb4-4885-4aa6-96c1-13b9df9a61d7"> </a><a name="76adaeb4-4885-4aa6-96c1-13b9df9a61d7-es-CL"> </a><p><b>Medio de Contacto</b>: <span title="Codes:{https://interoperabilidad.minsal.cl/fhir/ig/quirurgico/CodeSystem/CSMediodeContacto 3}">Llamada</span></p><blockquote><p><b>Extension ContactadoLE</b></p><ul><li>Contactado: true</li></ul></blockquote><p><b>identifier</b>: CITA-20241027-001</p><p><b>status</b>: Booked</p><p><b>serviceType</b>: <span title="Codes:{https://interoperabilidad.minsal.cl/fhir/ig/quirurgico/CodeSystem/CSTipoServicioAgendamiento 1}">Entrevista Pre Quirúrgica</span></p><p><b>start</b>: 2024-10-27 10:00:00-0400</p><p><b>end</b>: 2024-10-27 10:30:00-0400</p><p><b>created</b>: 2024-10-25 14:00:00-0400</p><p><b>basedOn</b>: <a href="ServiceRequest-38a17703-0731-4c3f-88fd-1202dc99d7ce.html">ServiceRequest Lung</a></p><blockquote><p><b>participant</b></p><p><b>actor</b>: <a href="Patient-22e862c5-6d96-44ec-869c-dba001058cb3.html">Juan Pérez (official) Male, DoB: 1980-01-01 ( RUN: 4444444-4)</a></p><p><b>status</b>: Accepted</p></blockquote><blockquote><p><b>participant</b></p><p><b>actor</b>: <a href="Bundle-EjBundleAgendarEntrevista.html#urn-uuid-2b238804-f4bd-4005-82d2-9777aa09bea8">Bundle: type = transaction</a></p><p><b>status</b>: Accepted</p></blockquote></div>
        </text>
        <extension url="https://interoperabilidad.minsal.cl/fhir/ig/quirurgico/StructureDefinition/ExtensionMediodeContacto">
          <valueCodeableConcept>
            <coding>
              <system value="https://interoperabilidad.minsal.cl/fhir/ig/quirurgico/CodeSystem/CSMediodeContacto"/>
              <code value="3"/>
              <display value="Llamada"/>
            </coding>
          </valueCodeableConcept>
        </extension>
        <extension url="https://interoperabilidad.minsal.cl/fhir/ig/quirurgico/StructureDefinition/Contactado">
          <extension url="Contactado">
            <valueBoolean value="true"/>
          </extension>
        </extension>
        <identifier>
          <value value="CITA-20241027-001"/>
        </identifier>
        <status value="booked"/>
        <serviceType>
          <coding>
            <system value="https://interoperabilidad.minsal.cl/fhir/ig/quirurgico/CodeSystem/CSTipoServicioAgendamiento"/>
            <code value="1"/>
            <display value="Entrevista Pre Quirúrgica"/>
          </coding>
        </serviceType>
        <start value="2024-10-27T10:00:00-04:00"/>
        <end value="2024-10-27T10:30:00-04:00"/>
        <created value="2024-10-25T14:00:00-04:00"/>
        <basedOn>
          <reference value="ServiceRequest/38a17703-0731-4c3f-88fd-1202dc99d7ce"/>
        </basedOn>
        <participant>
          <actor>
            <reference value="Patient/22e862c5-6d96-44ec-869c-dba001058cb3"/>
            <type value="Patient"/>
          </actor>
          <status value="accepted"/>
        </participant>
        <participant>
          <actor>
            <reference value="urn:uuid:2b238804-f4bd-4005-82d2-9777aa09bea8"/>
            <type value="PractitionerRole"/>
          </actor>
          <status value="accepted"/>
        </participant>
      </Appointment>
    </resource>
    <request>
      <method value="POST"/>
      <url value="Appointment"/>
    </request>
  </entry>
  <entry>
    <fullUrl value="urn:uuid:2d5d9db4-6ade-43c9-b4f5-cc68b9c7f210"/>
    <resource>
      <Practitioner>
        <id value="2d5d9db4-6ade-43c9-b4f5-cc68b9c7f210"/>
        <meta>
          <profile value="https://interoperabilidad.minsal.cl/fhir/ig/quirurgico/StructureDefinition/PractitionerProfesionalLE"/>
        </meta>
        <text>
          <status value="generated"/><div xmlns="http://www.w3.org/1999/xhtml"><a name="Practitioner_2d5d9db4-6ade-43c9-b4f5-cc68b9c7f210"> </a><p class="res-header-id"><b>Generated Narrative: Practitioner 2d5d9db4-6ade-43c9-b4f5-cc68b9c7f210</b></p><a name="2d5d9db4-6ade-43c9-b4f5-cc68b9c7f210"> </a><a name="hc2d5d9db4-6ade-43c9-b4f5-cc68b9c7f210"> </a><a name="2d5d9db4-6ade-43c9-b4f5-cc68b9c7f210-es-CL"> </a><p><b>identifier</b>: RUN/55555555-5 (use: official, )</p><p><b>name</b>: Paula Hernandez (Official)</p><p><b>birthDate</b>: 1990-05-15</p><h3>Qualifications</h3><table class="grid"><tr><td style="display: none">-</td><td><b>Identifier</b></td><td><b>Code</b></td></tr><tr><td style="display: none">*</td><td>cert</td><td><span title="Codes:{https://interoperabilidad.minsal.cl/fhir/ig/quirurgico/CodeSystem/CSTituloProfesional 3}">Enfermera</span></td></tr></table></div>
        </text>
        <identifier>
          <use value="official"/>
          <type>
            <coding>
              <system value="https://hl7chile.cl/fhir/ig/clcore/CodeSystem/CSTipoIdentificador"/>
              <code value="01"/>
            </coding>
          </type>
          <system value="http://www.registrocivil.cl"/>
          <value value="55555555-5"/>
        </identifier>
        <name>
          <use value="official"/>
          <family value="Hernandez">
            <extension url="https://hl7chile.cl/fhir/ig/clcore/StructureDefinition/SegundoApellido">
              <valueString value="Navarro"/>
            </extension>
          </family>
          <given value="Paula"/>
        </name>
        <birthDate value="1990-05-15"/>
        <qualification>
          <identifier>
            <value value="cert"/>
          </identifier>
          <code>
            <coding>
              <system value="https://interoperabilidad.minsal.cl/fhir/ig/quirurgico/CodeSystem/CSTituloProfesional"/>
              <code value="3"/>
              <display value="ENFERMERAS(OS)"/>
            </coding>
            <text value="Enfermera"/>
          </code>
        </qualification>
      </Practitioner>
    </resource>
    <request>
      <method value="POST"/>
      <url value="Practitioner"/>
      <ifNoneExist value="identifier=http://www.registrocivil.cl|55555555-5"/>
    </request>
  </entry>
  <entry>
    <fullUrl value="urn:uuid:2b238804-f4bd-4005-82d2-9777aa09bea8"/>
    <resource>
      <PractitionerRole>
        <id value="2b238804-f4bd-4005-82d2-9777aa09bea8"/>
        <meta>
          <profile value="https://interoperabilidad.minsal.cl/fhir/ig/quirurgico/StructureDefinition/PractitionerRoleLE"/>
        </meta>
        <text>
          <status value="generated"/><div xmlns="http://www.w3.org/1999/xhtml"><a name="PractitionerRole_2b238804-f4bd-4005-82d2-9777aa09bea8"> </a><p class="res-header-id"><b>Generated Narrative: PractitionerRole 2b238804-f4bd-4005-82d2-9777aa09bea8</b></p><a name="2b238804-f4bd-4005-82d2-9777aa09bea8"> </a><a name="hc2b238804-f4bd-4005-82d2-9777aa09bea8"> </a><a name="2b238804-f4bd-4005-82d2-9777aa09bea8-es-CL"> </a><p><b>practitioner</b>: <a href="Bundle-EjBundleAgendarCirugia.html#urn-uuid-2d5d9db4-6ade-43c9-b4f5-cc68b9c7f210">Bundle: type = transaction</a></p><p><b>organization</b>: <a href="Organization-5491b8d5-e06c-4f89-beb7-75a1989cdc81.html">Organization Hospital Clínico Metropolitano La Florida Dra. Eloísa Díaz Insunza</a></p><p><b>code</b>: <span title="Codes:{https://interoperabilidad.minsal.cl/fhir/ig/quirurgico/CodeSystem/CSPractitionerTipoRolLE agendador}">Agendador</span></p></div>
        </text>
        <practitioner>
          <reference value="urn:uuid:2d5d9db4-6ade-43c9-b4f5-cc68b9c7f210"/>
        </practitioner>
        <organization>
          <reference value="Organization/5491b8d5-e06c-4f89-beb7-75a1989cdc81"/>
        </organization>
        <code>
          <coding>
            <system value="https://interoperabilidad.minsal.cl/fhir/ig/quirurgico/CodeSystem/CSPractitionerTipoRolLE"/>
            <code value="agendador"/>
          </coding>
        </code>
      </PractitionerRole>
    </resource>
    <request>
      <method value="POST"/>
      <url value="PractitionerRole"/>
      <ifNoneExist value="practitioner.identifier=http://www.registrocivil.cl|55555555-5&amp;role=https://interoperabilidad.minsal.cl/fhir/ig/quirurgico/CodeSystem/CSPractitionerTipoRolLE|agendador"/>
    </request>
  </entry>
</Bundle>