<?xml version="1.0" encoding="UTF-8"?>

<Bundle xmlns="http://hl7.org/fhir">
  <id value="BundleReferenciarEjemplo"/>
  <meta>
    <profile value="https://interoperabilidad.minsal.cl/fhir/ig/tei/StructureDefinition/BundleReferenciarLE"/>
  </meta>
  <type value="message"/>
  <timestamp value="2024-01-18T16:00:00-03:00"/>
  <entry>
    <fullUrl value="http://interoperabilidad.minsal.cl/fhir/ig/tei/MessageHeader/MesssageHeaderReferenciar"/>
    <resource>
      <MessageHeader>
        <id value="MesssageHeaderReferenciar"/>
        <meta>
          <lastUpdated value="2024-01-18T16:00:00-03:00"/>
          <profile value="https://interoperabilidad.minsal.cl/fhir/ig/tei/StructureDefinition/MessageHeaderLE"/>
        </meta>
        <text>
          <status value="generated"/><div xmlns="http://www.w3.org/1999/xhtml"><a name="MessageHeader_MesssageHeaderReferenciar"> </a><p class="res-header-id"><b>Generated Narrative: CabeceraMensaje MesssageHeaderReferenciar</b></p><a name="MesssageHeaderReferenciar"> </a><a name="hcMesssageHeaderReferenciar"> </a><div style="display: inline-block; background-color: #d9e0e7; padding: 6px; margin: 4px; border: 1px solid #8da1b4; border-radius: 5px; line-height: 60%"><p style="margin-bottom: 0px">Last updated: 2024-01-18 16:00:00-0300</p><p style="margin-bottom: 0px">Profile: <a href="StructureDefinition-MessageHeaderLE.html">MessageHeader LE</a></p></div><p><b>event</b>: <a href="CodeSystem-CSTipoEventoLE.html#CSTipoEventoLE-referenciar">Tipo de Evento: referenciar</a> (Referenciar)</p><p><b>author</b>: <a href="Bundle-BundleReferenciarEjemplo.html#PractitionerRole_PractitionerRoleReferenciador">PractitionerRole Referenciador</a></p><h3>Sources</h3><table class="grid"><tr><td style="display: none">-</td><td><b>Software</b></td><td><b>Endpoint</b></td></tr><tr><td style="display: none">*</td><td>SISMaule</td><td>llp:10.11.12.13:5432</td></tr></table><p><b>focus</b>: <a href="Bundle-BundleReferenciarEjemplo.html#ServiceRequest_SolicitudInterconsultaEjemplo2">ServiceRequest derivación del paciente a un especialista</a></p></div>
        </text>
        <eventCoding>
          <system value="https://interoperabilidad.minsal.cl/fhir/ig/tei/CodeSystem/CSTipoEventoLE"/>
          <code value="referenciar"/>
          <display value="Referenciar"/>
        </eventCoding>
        <author>
          <reference value="PractitionerRole/PractitionerRoleReferenciador"/>
        </author>
        <source>
          <software value="SISMaule"/>
          <endpoint value="llp:10.11.12.13:5432"/>
        </source>
        <focus>
          <reference value="ServiceRequest/SolicitudInterconsultaEjemplo2"/>
        </focus>
      </MessageHeader>
    </resource>
  </entry>
  <entry>
    <fullUrl value="http://interoperabilidad.minsal.cl/fhir/ig/tei/ServiceRequest/SolicitudInterconsultaEjemplo2"/>
    <resource>
      <ServiceRequest>
        <id value="SolicitudInterconsultaEjemplo2"/>
        <meta>
          <versionId value="2.0"/>
          <profile value="https://interoperabilidad.minsal.cl/fhir/ig/tei/StructureDefinition/ServiceRequestLE"/>
        </meta>
        <text>
          <status value="extensions"/><div xmlns="http://www.w3.org/1999/xhtml"><a name="ServiceRequest_SolicitudInterconsultaEjemplo2"> </a><p class="res-header-id"><b>Generated Narrative: PeticiónServicio SolicitudInterconsultaEjemplo2</b></p><a name="SolicitudInterconsultaEjemplo2"> </a><a name="hcSolicitudInterconsultaEjemplo2"> </a><div style="display: inline-block; background-color: #d9e0e7; padding: 6px; margin: 4px; border: 1px solid #8da1b4; border-radius: 5px; line-height: 60%"><p style="margin-bottom: 0px">version: 2.0</p><p style="margin-bottom: 0px">Profile: <a href="StructureDefinition-ServiceRequestLE.html">ServiceRequest LE</a></p></div><p><b>ExtBool Requiere Examen</b>: true</p><p><b>ExtBool Resolutividad APS</b>: true</p><p><b>Origen Interconsulta</b>: <span title="Codes:{https://interoperabilidad.minsal.cl/fhir/ig/tei/CodeSystem/CSorigenInterconsulta 1}">APS</span></p><p><b>Estado Interconsulta Codigo</b>: <span title="Codes:{https://interoperabilidad.minsal.cl/fhir/ig/tei/CodeSystem/CSEstadoInterconsulta 2}">A la espera de revisión</span></p><p><b>Especialidad Médica Destino Código</b>: <span title="Codes:{https://interoperabilidad.minsal.cl/fhir/ig/tei/CodeSystem/CSEspecialidadMed 30}">MEDICINA INTERNA</span></p><p><b>SubEspecialidad Médica Destino Código</b>: <span title="Codes:{https://interoperabilidad.minsal.cl/fhir/ig/tei/CodeSystem/CSEspecialidadMed 14}">ENDOCRINOLOGÍA ADULTO</span></p><p><b>Sospecha Patologia Ges</b>: false</p><p><b>identifier</b>: 123</p><p><b>status</b>: Draft</p><p><b>intent</b>: Order</p><p><b>category</b>: <span title="Codes:{https://interoperabilidad.minsal.cl/fhir/ig/tei/CodeSystem/CSModalidadAtencionCodigo 1}">Presencial</span></p><p><b>priority</b>: Routine</p><p><b>code</b>: <span title="Codes:{http://snomed.info/sct 103696004}">Interconsulta para atención presencial</span></p><p><b>subject</b>: <a href="Patient-EjemploPatientLE.html">María Josefina Gonzalez (official) Male, DoB: 1974-12-25 ( Rol Único Nacional: 90000000-6 (use: official, ))</a></p><p><b>encounter</b>: <a href="Encounter-EncounterIniciarEjemplo.html">Encounter: extension = Derivación; identifier = http://example.org/sampleencounter-identifier#123 (use: official, ); status = finished; class = Presencial (Modalidad Atencion Codigo#1); period = 2024-01-17 16:00:00+1000 --&gt; 2024-01-17 16:30:00+1000</a></p><p><b>authoredOn</b>: 2024-12-10 09:00:00+0000</p><p><b>requester</b>: <a href="PractitionerRole-PractitionerRoleIniciador.html">PractitionerRole Iniciador</a></p><p><b>performer</b>: <a href="Bundle-BundleReferenciarEjemplo.html#PractitionerRole_PractitionerRoleAtendedor1">PractitionerRole Atendedor</a></p><p><b>locationCode</b>: <span title="Codes:{https://interoperabilidad.minsal.cl/fhir/ig/tei/CodeSystem/CSDestinoReferenciaCodigo 1}">Nivel Secundario</span></p><p><b>reasonCode</b>: <span title="Codes:{https://interoperabilidad.minsal.cl/fhir/ig/tei/CodeSystem/CSDerivadoParaCodigo 1}">Confirmación</span></p><p><b>supportingInfo</b>: </p><ul><li><a href="Condition-ConditionInicialEjemplo.html">Condition Adrenal antibody detected</a></li><li><a href="AllergyIntolerance-AllergyIntoleranceExample.html">AllergyIntolerance castaña de cajú</a></li><li><a href="Observation-IndiceConmorbilidadEjemplo.html">Observation Estrategia de cuidado integral centrado en las personas</a></li><li><a href="Observation-EjemploObservationCuidador.html">Observation Cuidador de personas con molestias relacionadas con la edad, enfermedades crónicas o fragilidad.: Paciente:Punto temporal:Tipo:Ordinal:</a></li><li><a href="Observation-EjemploObservationDiscapacidadLE.html">Observation Disability status</a></li><li><a href="QuestionnaireResponse-MotivoDerivacionEjemplo.html">Response to Questionnaire '-&gt;Motivo de Derivación' about '-&gt;María Josefina Gonzalez (official) Male, DoB: 1974-12-25 ( Rol Único Nacional: 90000000-6 (use: official, ))'</a></li><li><a href="ServiceRequest-EjemploSolicitudExamen.html">ServiceRequest Ag específico de próstata: Suero o Plasma : Punto temporal: Concentración de masa: Cuantitativo:</a></li><li><a href="Observation-AnticuerpoAdrenal.html">Observation Ab adrenal: Suero : Punto temporal: Concentración arbitraria: Cuantitativo:</a></li></ul></div>
        </text>
        <extension url="https://interoperabilidad.minsal.cl/fhir/ig/tei/StructureDefinition/ExtensionBoolRequiereExamen">
          <valueBoolean value="true"/>
        </extension>
        <extension url="https://interoperabilidad.minsal.cl/fhir/ig/tei/StructureDefinition/ExtensionBoolResolutividadAPS">
          <valueBoolean value="true"/>
        </extension>
        <extension url="https://interoperabilidad.minsal.cl/fhir/ig/tei/StructureDefinition/ExtensionOrigenInterconsulta">
          <valueCodeableConcept>
            <coding>
              <system value="https://interoperabilidad.minsal.cl/fhir/ig/tei/CodeSystem/CSorigenInterconsulta"/>
              <code value="1"/>
              <display value="APS"/>
            </coding>
          </valueCodeableConcept>
        </extension>
        <extension url="https://interoperabilidad.minsal.cl/fhir/ig/tei/StructureDefinition/ExtensionEstadoInterconsultaCodigoLE">
          <valueCodeableConcept>
            <coding>
              <system value="https://interoperabilidad.minsal.cl/fhir/ig/tei/CodeSystem/CSEstadoInterconsulta"/>
              <code value="2"/>
              <display value="A la espera de revisión"/>
            </coding>
          </valueCodeableConcept>
        </extension>
        <extension url="https://interoperabilidad.minsal.cl/fhir/ig/tei/StructureDefinition/ExtensionEspecialidadMedicaDestinoCodigo">
          <valueCodeableConcept>
            <coding>
              <system value="https://interoperabilidad.minsal.cl/fhir/ig/tei/CodeSystem/CSEspecialidadMed"/>
              <code value="30"/>
              <display value="MEDICINA INTERNA"/>
            </coding>
          </valueCodeableConcept>
        </extension>
        <extension url="https://interoperabilidad.minsal.cl/fhir/ig/tei/StructureDefinition/ExtensionSubEspecialidadMedicaDestinoCodigo">
          <valueCodeableConcept>
            <coding>
              <system value="https://interoperabilidad.minsal.cl/fhir/ig/tei/CodeSystem/CSEspecialidadMed"/>
              <code value="14"/>
              <display value="ENDOCRINOLOGÍA ADULTO"/>
            </coding>
          </valueCodeableConcept>
        </extension>
        <extension url="https://interoperabilidad.minsal.cl/fhir/ig/tei/StructureDefinition/SospechaPatologiaGes">
          <valueBoolean value="false"/>
        </extension>
        <identifier>
          <value value="123"/>
        </identifier>
        <status value="draft"/>
        <intent value="order"/>
        <category>
          <coding>
            <system value="https://interoperabilidad.minsal.cl/fhir/ig/tei/CodeSystem/CSModalidadAtencionCodigo"/>
            <code value="1"/>
            <display value="Presencial"/>
          </coding>
        </category>
        <priority value="routine"/>
        <code>
          <coding>
            <system value="http://snomed.info/sct"/>
            <code value="103696004"/>
          </coding>
          <text value="Interconsulta para atención presencial"/>
        </code>
        <subject>
          <reference value="Patient/EjemploPatientLE"/>
        </subject>
        <encounter>
          <reference value="Encounter/EncounterIniciarEjemplo"/>
        </encounter>
        <authoredOn value="2024-12-10T09:00:00Z"/>
        <requester>
          <reference value="PractitionerRole/PractitionerRoleIniciador"/>
        </requester>
        <performer>
          <reference value="PractitionerRole/PractitionerRoleAtendedor1"/>
        </performer>
        <locationCode>
          <coding>
            <system value="https://interoperabilidad.minsal.cl/fhir/ig/tei/CodeSystem/CSDestinoReferenciaCodigo"/>
            <code value="1"/>
            <display value="Nivel Secundario"/>
          </coding>
        </locationCode>
        <reasonCode>
          <coding>
            <system value="https://interoperabilidad.minsal.cl/fhir/ig/tei/CodeSystem/CSDerivadoParaCodigo"/>
            <code value="1"/>
            <display value="Confirmación"/>
          </coding>
        </reasonCode>
        <supportingInfo>
          <reference value="Condition/ConditionInicialEjemplo"/>
        </supportingInfo>
        <supportingInfo>
          <reference value="AllergyIntolerance/AllergyIntoleranceExample"/>
        </supportingInfo>
        <supportingInfo>
          <reference value="Observation/IndiceConmorbilidadEjemplo"/>
        </supportingInfo>
        <supportingInfo>
          <reference value="Observation/EjemploObservationCuidador"/>
        </supportingInfo>
        <supportingInfo>
          <reference value="Observation/EjemploObservationDiscapacidadLE"/>
        </supportingInfo>
        <supportingInfo>
          <reference value="QuestionnaireResponse/MotivoDerivacionEjemplo"/>
        </supportingInfo>
        <supportingInfo>
          <reference value="ServiceRequest/EjemploSolicitudExamen"/>
        </supportingInfo>
        <supportingInfo>
          <reference value="Observation/AnticuerpoAdrenal"/>
        </supportingInfo>
      </ServiceRequest>
    </resource>
  </entry>
  <entry>
    <fullUrl value="http://interoperabilidad.minsal.cl/fhir/ig/tei/Practitioner/PractitionerProfesionalLEEjemplo"/>
    <resource>
      <Practitioner>
        <id value="PractitionerProfesionalLEEjemplo"/>
        <meta>
          <profile value="https://interoperabilidad.minsal.cl/fhir/ig/tei/StructureDefinition/PractitionerProfesionalLE"/>
        </meta>
        <text>
          <status value="generated"/><div xmlns="http://www.w3.org/1999/xhtml"><a name="Practitioner_PractitionerProfesionalLEEjemplo"> </a><p class="res-header-id"><b>Generated Narrative: Practicante / Profesional PractitionerProfesionalLEEjemplo</b></p><a name="PractitionerProfesionalLEEjemplo"> </a><a name="hcPractitionerProfesionalLEEjemplo"> </a><div style="display: inline-block; background-color: #d9e0e7; padding: 6px; margin: 4px; border: 1px solid #8da1b4; border-radius: 5px; line-height: 60%"><p style="margin-bottom: 0px"/><p style="margin-bottom: 0px">Profile: <a href="StructureDefinition-PractitionerProfesionalLE.html">Prestador Profesional LE</a></p></div><p><b>identifier</b>: Rol Único Nacional/90000000-6 (use: official, ), Registro Nacional de Prestadores Individuales/9999999 (use: secondary, )</p><p><b>active</b>: true</p><p><b>name</b>: Víctor Gonzalez </p><p><b>address</b>: Dirección falsa 123,depto 1202 null (work)</p><p><b>gender</b>: Male</p><p><b>birthDate</b>: 1980-01-01</p><h3>Qualifications</h3><table class="grid"><tr><td style="display: none">-</td><td><b>Identifier</b></td><td><b>Code</b></td><td><b>Period</b></td><td><b>Issuer</b></td></tr><tr><td style="display: none">*</td><td>cert</td><td><span title="Codes:{https://interoperabilidad.minsal.cl/fhir/ig/tei/CodeSystem/CSTituloProfesional 1}">MÉDICO CIRUJANO</span></td><td>2007-11-01 --&gt; (ongoing)</td><td>Universidad de Chile</td></tr></table></div>
        </text>
        <identifier>
          <use value="official"/>
          <type>
            <coding>
              <system value="https://hl7chile.cl/fhir/ig/clcore/CodeSystem/CSTipoIdentificador"/>
              <code value="01"/>
              <display value="RUN"/>
            </coding>
            <text value="Rol Único Nacional"/>
          </type>
          <value value="90000000-6"/>
          <assigner>
            <display value="Republica de Chile"/>
          </assigner>
        </identifier>
        <identifier>
          <use value="secondary"/>
          <type>
            <coding>
              <system value="https://hl7chile.cl/fhir/ig/clcore/CodeSystem/CSTipoIdentificador"/>
              <code value="13"/>
              <display value="RNPI"/>
            </coding>
            <text value="Registro Nacional de Prestadores Individuales"/>
          </type>
          <value value="9999999"/>
          <assigner>
            <display value="Intendencia de prestadores individuales - Superintendencia de Salud"/>
          </assigner>
        </identifier>
        <active value="true"/>
        <name>
          <family value="Gonzalez">
            <extension url="https://hl7chile.cl/fhir/ig/clcore/StructureDefinition/SegundoApellido">
              <valueString value="Torres"/>
            </extension>
          </family>
          <given value="Víctor"/>
          <prefix value="Dr"/>
        </name>
        <address>
          <use value="work"/>
          <line value="Dirección falsa 123,depto 1202"/>
          <state>
            <extension url="https://hl7chile.cl/fhir/ig/clcore/StructureDefinition/RegionesCl">
              <valueCodeableConcept>
                <coding>
                  <system value="https://hl7chile.cl/fhir/ig/clcore/CodeSystem/CSCodRegionCL"/>
                  <code value="13"/>
                  <display value="Metropolitana de Santiago"/>
                </coding>
              </valueCodeableConcept>
            </extension>
          </state>
        </address>
        <gender value="male"/>
        <birthDate value="1980-01-01"/>
        <qualification>
          <identifier>
            <value value="cert"/>
          </identifier>
          <code>
            <coding>
              <system value="https://interoperabilidad.minsal.cl/fhir/ig/tei/CodeSystem/CSTituloProfesional"/>
              <code value="1"/>
              <display value="MÉDICO CIRUJANO"/>
            </coding>
            <text value="MÉDICO CIRUJANO"/>
          </code>
          <period>
            <start value="2007-11-01"/>
          </period>
          <issuer>
            <display value="Universidad de Chile"/>
          </issuer>
        </qualification>
      </Practitioner>
    </resource>
  </entry>
  <entry>
    <fullUrl value="http://interoperabilidad.minsal.cl/fhir/ig/tei/PractitionerRole/PractitionerRoleReferenciador"/>
    <resource>
      <PractitionerRole>
        <id value="PractitionerRoleReferenciador"/>
        <meta>
          <profile value="https://interoperabilidad.minsal.cl/fhir/ig/tei/StructureDefinition/PractitionerRoleLE"/>
        </meta>
        <text>
          <status value="generated"/><div xmlns="http://www.w3.org/1999/xhtml"><a name="PractitionerRole_PractitionerRoleReferenciador"> </a><p class="res-header-id"><b>Generated Narrative: RolProfesional PractitionerRoleReferenciador</b></p><a name="PractitionerRoleReferenciador"> </a><a name="hcPractitionerRoleReferenciador"> </a><div style="display: inline-block; background-color: #d9e0e7; padding: 6px; margin: 4px; border: 1px solid #8da1b4; border-radius: 5px; line-height: 60%"><p style="margin-bottom: 0px"/><p style="margin-bottom: 0px">Profile: <a href="StructureDefinition-PractitionerRoleLE.html">PractitionerRole LE</a></p></div><p><b>active</b>: true</p><p><b>practitioner</b>: <a href="Practitioner-PractitionerProfesionalLEEjemplo.html">Practitioner Víctor Gonzalez </a></p><p><b>organization</b>: <a href="Bundle-BundleReferenciarEjemplo.html#Organization_OrganizationLEReferenciar">Organization Complejo Asistencial Dr. Víctor Ríos Ruiz (Los Ángeles)</a></p><p><b>code</b>: <span title="Codes:{https://interoperabilidad.minsal.cl/fhir/ig/tei/CodeSystem/CSPractitionerTipoRolLE referenciador}">Referenciador</span></p></div>
        </text>
        <active value="true"/>
        <practitioner>
          <reference value="Practitioner/PractitionerProfesionalLEEjemplo"/>
        </practitioner>
        <organization>
          <reference value="Organization/OrganizationLEReferenciar"/>
        </organization>
        <code>
          <coding>
            <system value="https://interoperabilidad.minsal.cl/fhir/ig/tei/CodeSystem/CSPractitionerTipoRolLE"/>
            <code value="referenciador"/>
            <display value="Referenciador"/>
          </coding>
        </code>
      </PractitionerRole>
    </resource>
  </entry>
  <entry>
    <fullUrl value="http://interoperabilidad.minsal.cl/fhir/ig/tei/PractitionerRole/PractitionerRoleAtendedor1"/>
    <resource>
      <PractitionerRole>
        <id value="PractitionerRoleAtendedor1"/>
        <meta>
          <versionId value="1.0"/>
          <profile value="https://interoperabilidad.minsal.cl/fhir/ig/tei/StructureDefinition/PractitionerRoleLE"/>
        </meta>
        <text>
          <status value="generated"/><div xmlns="http://www.w3.org/1999/xhtml"><a name="PractitionerRole_PractitionerRoleAtendedor1"> </a><p class="res-header-id"><b>Generated Narrative: RolProfesional PractitionerRoleAtendedor1</b></p><a name="PractitionerRoleAtendedor1"> </a><a name="hcPractitionerRoleAtendedor1"> </a><div style="display: inline-block; background-color: #d9e0e7; padding: 6px; margin: 4px; border: 1px solid #8da1b4; border-radius: 5px; line-height: 60%"><p style="margin-bottom: 0px">version: 1.0</p><p style="margin-bottom: 0px">Profile: <a href="StructureDefinition-PractitionerRoleLE.html">PractitionerRole LE</a></p></div><p><b>active</b>: true</p><p><b>organization</b>: <a href="Organization-OrganizationLEAtendedor.html">Organization Centro de Referencia de Salud Miraflores</a></p><p><b>code</b>: <span title="Codes:{https://interoperabilidad.minsal.cl/fhir/ig/tei/CodeSystem/CSPractitionerTipoRolLE atendedor}">Atendedor</span></p></div>
        </text>
        <active value="true"/>
        <organization>
          <reference value="Organization/OrganizationLEAtendedor"/>
        </organization>
        <code>
          <coding>
            <system value="https://interoperabilidad.minsal.cl/fhir/ig/tei/CodeSystem/CSPractitionerTipoRolLE"/>
            <code value="atendedor"/>
            <display value="Atendedor"/>
          </coding>
        </code>
      </PractitionerRole>
    </resource>
  </entry>
  <entry>
    <fullUrl value="http://interoperabilidad.minsal.cl/fhir/ig/tei/Organization/OrganizationLEReferenciar"/>
    <resource>
      <Organization>
        <id value="OrganizationLEReferenciar"/>
        <meta>
          <profile value="https://interoperabilidad.minsal.cl/fhir/ig/tei/StructureDefinition/OrganizationLE"/>
        </meta>
        <text>
          <status value="generated"/><div xmlns="http://www.w3.org/1999/xhtml"><a name="Organization_OrganizationLEReferenciar"> </a><p class="res-header-id"><b>Generated Narrative: Organización OrganizationLEReferenciar</b></p><a name="OrganizationLEReferenciar"> </a><a name="hcOrganizationLEReferenciar"> </a><div style="display: inline-block; background-color: #d9e0e7; padding: 6px; margin: 4px; border: 1px solid #8da1b4; border-radius: 5px; line-height: 60%"><p style="margin-bottom: 0px"/><p style="margin-bottom: 0px">Profile: <a href="StructureDefinition-OrganizationLE.html">Organization LE</a></p></div><p><b>identifier</b>: <code>https://interoperabilidad.minsal.cl/fhir/ig/tei/CodeSystem/CSEstablecimientoDestino</code>/120101</p><p><b>name</b>: Complejo Asistencial Dr. Víctor Ríos Ruiz (Los Ángeles)</p><p><b>alias</b>: Hospital de Los Ángeles</p><p><b>telecom</b>: ph: (+56) 432336000</p><p><b>address</b>: Ricardo Vicuña 147 Los Ángeles 4451055 Chile </p></div>
        </text>
        <identifier>
          <system value="https://interoperabilidad.minsal.cl/fhir/ig/tei/CodeSystem/CSEstablecimientoDestino"/>
          <value value="120101"/>
        </identifier>
        <name value="Complejo Asistencial Dr. Víctor Ríos Ruiz (Los Ángeles)"/>
        <alias value="Hospital de Los Ángeles"/>
        <telecom>
          <system value="phone"/>
          <value value="(+56) 432336000"/>
        </telecom>
        <address>
          <line value="Ricardo Vicuña 147"/>
          <city value="Los Ángeles">
            <extension url="https://hl7chile.cl/fhir/ig/clcore/StructureDefinition/ComunasCl">
              <valueCodeableConcept>
                <coding>
                  <system value="https://hl7chile.cl/fhir/ig/clcore/CodeSystem/CSCodComunasCL"/>
                  <code value="08301"/>
                  <display value="Los Ángeles"/>
                </coding>
              </valueCodeableConcept>
            </extension>
          </city>
          <postalCode value="4451055"/>
          <country value="Chile">
            <extension url="https://hl7chile.cl/fhir/ig/clcore/StructureDefinition/CodigoPaises">
              <valueCodeableConcept>
                <coding>
                  <system value="https://hl7chile.cl/fhir/ig/clcore/CodeSystem/CodPais"/>
                  <code value="152"/>
                  <display value="Chile"/>
                </coding>
              </valueCodeableConcept>
            </extension>
          </country>
        </address>
      </Organization>
    </resource>
  </entry>
  <entry>
    <fullUrl value="http://interoperabilidad.minsal.cl/fhir/ig/tei/Organization/OrganizationLEAtendedor"/>
    <resource>
      <Organization>
        <id value="OrganizationLEAtendedor"/>
        <meta>
          <profile value="https://interoperabilidad.minsal.cl/fhir/ig/tei/StructureDefinition/OrganizationLE"/>
        </meta>
        <text>
          <status value="generated"/><div xmlns="http://www.w3.org/1999/xhtml"><a name="Organization_OrganizationLEAtendedor"> </a><p class="res-header-id"><b>Generated Narrative: Organización OrganizationLEAtendedor</b></p><a name="OrganizationLEAtendedor"> </a><a name="hcOrganizationLEAtendedor"> </a><div style="display: inline-block; background-color: #d9e0e7; padding: 6px; margin: 4px; border: 1px solid #8da1b4; border-radius: 5px; line-height: 60%"><p style="margin-bottom: 0px"/><p style="margin-bottom: 0px">Profile: <a href="StructureDefinition-OrganizationLE.html">Organization LE</a></p></div><p><b>identifier</b>: <code>https://interoperabilidad.minsal.cl/fhir/ig/tei/CodeSystem/CSEstablecimientoDestino</code>/121343</p><p><b>name</b>: Centro de Referencia de Salud Miraflores</p></div>
        </text>
        <identifier>
          <system value="https://interoperabilidad.minsal.cl/fhir/ig/tei/CodeSystem/CSEstablecimientoDestino"/>
          <value value="121343"/>
        </identifier>
        <name value="Centro de Referencia de Salud Miraflores"/>
      </Organization>
    </resource>
  </entry>
</Bundle>