{
  "resourceType" : "RequestGroup",
  "id" : "Receta1",
  "meta" : {
    "profile" : ["https://interoperabilidad.minsal.cl/fhir/ig/snre/StructureDefinition/RecetaCl"]
  },
  "text" : {
    "status" : "generated",
    "div" : "<div xmlns=\"http://www.w3.org/1999/xhtml\"><p><b>Generated Narrative: RequestGroup</b><a name=\"Receta1\"> </a></p><div style=\"display: inline-block; background-color: #d9e0e7; padding: 6px; margin: 4px; border: 1px solid #8da1b4; border-radius: 5px; line-height: 60%\"><p style=\"margin-bottom: 0px\">Resource RequestGroup &quot;Receta1&quot; </p><p style=\"margin-bottom: 0px\">Profile: <a href=\"StructureDefinition-RecetaCl.html\">CL Receta</a></p></div><p><b>basedOn</b>: </p><ul><li><a name=\"PrescipcionEj\"> </a></li><li><a name=\"Receta4\"> </a></li></ul><blockquote><p/><p><a name=\"PrescipcionEj\"> </a></p><p><b>status</b>: active</p><p><b>intent</b>: order</p><p><b>category</b>: Discharge <span style=\"background: LightGoldenRodYellow; margin: 4px; border: 1px solid khaki\"> (<a href=\"http://terminology.hl7.org/5.3.0/CodeSystem-medicationrequest-category.html\">MedicationRequest Category Codes</a>#discharge)</span></p><p><b>medication</b>: <a href=\"Medication-Medicamento2.html\">Medication/Medicamento2: clonazepam 0,5 mg comprimido</a></p><p><b>subject</b>: <a href=\"Patient-Paciente1.html\">Patient/Paciente1</a> &quot; VADER&quot;</p><p><b>requester</b>: <a href=\"Practitioner-Prestador1.html\">Practitioner/Prestador1</a> &quot; ESPARTA&quot;</p><p><b>groupIdentifier</b>: id:\u00a07f5b95f78a375236d71f</p><p><b>courseOfTherapyType</b>: Terapia a corto plazo (aguda) <span style=\"background: LightGoldenRodYellow; margin: 4px; border: 1px solid khaki\"> (<a href=\"CodeSystem-CSCodificacionPatron.html\">Patrón de la Prescripción</a>#acute)</span></p><blockquote><p><b>dosageInstruction</b></p><p><b>sequence</b>: 1</p><p><b>text</b>: Administrar 1 Comprimido cada 12 horas por 30 días</p><p><b>timing</b>: Once per 12 hours</p><p><b>route</b>: vía Oral route (calificador) <span style=\"background: LightGoldenRodYellow; margin: 4px; border: 1px solid khaki\"> (<a href=\"CodeSystem-CSViasAdmin.html\">Vías de Administración</a>#26643006)</span></p><p><b>method</b>: Tragar (método de administración) <span style=\"background: LightGoldenRodYellow; margin: 4px; border: 1px solid khaki\"> (<a href=\"CodeSystem-CSMetodos.html\">Métodos de Administración</a>#738995006)</span></p><blockquote><p><b>doseAndRate</b></p></blockquote></blockquote><h3>DispenseRequests</h3><table class=\"grid\"><tr><td style=\"display: none\">-</td><td><b>ValidityPeriod</b></td><td><b>Quantity</b></td></tr><tr><td style=\"display: none\">*</td><td>2022-08-19 --&gt; 2022-09-18</td><td>60</td></tr></table></blockquote><blockquote><p/><p><a name=\"Receta4\"> </a></p><p><b>identifier</b>: Id_Local:\u00a0e815615ef9ee7afb52be</p><p><b>status</b>: active</p><p><b>intent</b>: order</p><p><b>category</b>: Outpatient <span style=\"background: LightGoldenRodYellow; margin: 4px; border: 1px solid khaki\"> (<a href=\"http://terminology.hl7.org/5.3.0/CodeSystem-medicationrequest-category.html\">MedicationRequest Category Codes</a>#outpatient)</span></p><p><b>medication</b>: <a href=\"Medication-Medicamento2.html\">Medication/Medicamento2: prednisona 20 mg comprimido</a></p><p><b>subject</b>: <a href=\"Patient-Paciente1.html\">Patient/Paciente1</a> &quot; VADER&quot;</p><p><b>requester</b>: <a href=\"Practitioner-Prestador1.html\">Practitioner/Prestador1</a> &quot; ESPARTA&quot;</p><p><b>groupIdentifier</b>: id:\u00a07f5b95f78a375236d71f</p><p><b>courseOfTherapyType</b>: Por temporada <span style=\"background: LightGoldenRodYellow; margin: 4px; border: 1px solid khaki\"> (<a href=\"CodeSystem-CSCodificacionPatron.html\">Patrón de la Prescripción</a>#seasonal)</span></p><blockquote><p><b>dosageInstruction</b></p><p><b>sequence</b>: 1</p><p><b>text</b>: Administrar 1 Comprimido cada 4 horas por 24 horas</p><p><b>timing</b>: Once per 4 hours</p><p><b>route</b>: vía Oral route (calificador) <span style=\"background: LightGoldenRodYellow; margin: 4px; border: 1px solid khaki\"> (<a href=\"CodeSystem-CSViasAdmin.html\">Vías de Administración</a>#26643006)</span></p><p><b>method</b>: Tragar (método de administración) <span style=\"background: LightGoldenRodYellow; margin: 4px; border: 1px solid khaki\"> (<a href=\"CodeSystem-CSMetodos.html\">Métodos de Administración</a>#738995006)</span></p><blockquote><p><b>doseAndRate</b></p></blockquote></blockquote><h3>DispenseRequests</h3><table class=\"grid\"><tr><td style=\"display: none\">-</td><td><b>ValidityPeriod</b></td><td><b>Performer</b></td></tr><tr><td style=\"display: none\">*</td><td>2022-08-19 --&gt; 2022-08-20</td><td><a href=\"Organization-ORG1.html\">Organization/ORG1: Centro de Salud Familiar Juan Pablo II (La Serena)</a> &quot;Centro de Salud Familiar Rio Bueno de Linares&quot;</td></tr></table></blockquote><p><b>groupIdentifier</b>: id:\u00a07f5b95f78a375236d71f</p><p><b>status</b>: active</p><p><b>intent</b>: order</p><p><b>subject</b>: <a href=\"Patient-Paciente1.html\">Patient/Paciente1</a> &quot; VADER&quot;</p><p><b>authoredOn</b>: 2022-08-20 15:02:12+0000</p><hr/><blockquote><p><b>Generated Narrative: MedicationRequest #PrescipcionEj</b><a name=\"PrescipcionEj\"> </a></p><p><b>status</b>: active</p><p><b>intent</b>: order</p><p><b>category</b>: Discharge <span style=\"background: LightGoldenRodYellow; margin: 4px; border: 1px solid khaki\"> (<a href=\"http://terminology.hl7.org/5.3.0/CodeSystem-medicationrequest-category.html\">MedicationRequest Category Codes</a>#discharge)</span></p><p><b>medication</b>: <a href=\"Medication-Medicamento2.html\">Medication/Medicamento2: clonazepam 0,5 mg comprimido</a></p><p><b>subject</b>: <a href=\"Patient-Paciente1.html\">Patient/Paciente1</a> &quot; VADER&quot;</p><p><b>requester</b>: <a href=\"Practitioner-Prestador1.html\">Practitioner/Prestador1</a> &quot; ESPARTA&quot;</p><p><b>groupIdentifier</b>: id:\u00a07f5b95f78a375236d71f</p><p><b>courseOfTherapyType</b>: Terapia a corto plazo (aguda) <span style=\"background: LightGoldenRodYellow; margin: 4px; border: 1px solid khaki\"> (<a href=\"CodeSystem-CSCodificacionPatron.html\">Patrón de la Prescripción</a>#acute)</span></p><blockquote><p><b>dosageInstruction</b></p><p><b>sequence</b>: 1</p><p><b>text</b>: Administrar 1 Comprimido cada 12 horas por 30 días</p><p><b>timing</b>: Once per 12 hours</p><p><b>route</b>: vía Oral route (calificador) <span style=\"background: LightGoldenRodYellow; margin: 4px; border: 1px solid khaki\"> (<a href=\"CodeSystem-CSViasAdmin.html\">Vías de Administración</a>#26643006)</span></p><p><b>method</b>: Tragar (método de administración) <span style=\"background: LightGoldenRodYellow; margin: 4px; border: 1px solid khaki\"> (<a href=\"CodeSystem-CSMetodos.html\">Métodos de Administración</a>#738995006)</span></p><blockquote><p><b>doseAndRate</b></p></blockquote></blockquote><h3>DispenseRequests</h3><table class=\"grid\"><tr><td style=\"display: none\">-</td><td><b>ValidityPeriod</b></td><td><b>Quantity</b></td></tr><tr><td style=\"display: none\">*</td><td>2022-08-19 --&gt; 2022-09-18</td><td>60</td></tr></table></blockquote><hr/><blockquote><p><b>Generated Narrative: MedicationRequest #Receta4</b><a name=\"Receta4\"> </a></p><p><b>identifier</b>: Id_Local:\u00a0e815615ef9ee7afb52be</p><p><b>status</b>: active</p><p><b>intent</b>: order</p><p><b>category</b>: Outpatient <span style=\"background: LightGoldenRodYellow; margin: 4px; border: 1px solid khaki\"> (<a href=\"http://terminology.hl7.org/5.3.0/CodeSystem-medicationrequest-category.html\">MedicationRequest Category Codes</a>#outpatient)</span></p><p><b>medication</b>: <a href=\"Medication-Medicamento2.html\">Medication/Medicamento2: prednisona 20 mg comprimido</a></p><p><b>subject</b>: <a href=\"Patient-Paciente1.html\">Patient/Paciente1</a> &quot; VADER&quot;</p><p><b>requester</b>: <a href=\"Practitioner-Prestador1.html\">Practitioner/Prestador1</a> &quot; ESPARTA&quot;</p><p><b>groupIdentifier</b>: id:\u00a07f5b95f78a375236d71f</p><p><b>courseOfTherapyType</b>: Por temporada <span style=\"background: LightGoldenRodYellow; margin: 4px; border: 1px solid khaki\"> (<a href=\"CodeSystem-CSCodificacionPatron.html\">Patrón de la Prescripción</a>#seasonal)</span></p><blockquote><p><b>dosageInstruction</b></p><p><b>sequence</b>: 1</p><p><b>text</b>: Administrar 1 Comprimido cada 4 horas por 24 horas</p><p><b>timing</b>: Once per 4 hours</p><p><b>route</b>: vía Oral route (calificador) <span style=\"background: LightGoldenRodYellow; margin: 4px; border: 1px solid khaki\"> (<a href=\"CodeSystem-CSViasAdmin.html\">Vías de Administración</a>#26643006)</span></p><p><b>method</b>: Tragar (método de administración) <span style=\"background: LightGoldenRodYellow; margin: 4px; border: 1px solid khaki\"> (<a href=\"CodeSystem-CSMetodos.html\">Métodos de Administración</a>#738995006)</span></p><blockquote><p><b>doseAndRate</b></p></blockquote></blockquote><h3>DispenseRequests</h3><table class=\"grid\"><tr><td style=\"display: none\">-</td><td><b>ValidityPeriod</b></td><td><b>Performer</b></td></tr><tr><td style=\"display: none\">*</td><td>2022-08-19 --&gt; 2022-08-20</td><td><a href=\"Organization-ORG1.html\">Organization/ORG1: Centro de Salud Familiar Juan Pablo II (La Serena)</a> &quot;Centro de Salud Familiar Rio Bueno de Linares&quot;</td></tr></table></blockquote></div>"
  },
  "contained" : [{
    "resourceType" : "MedicationRequest",
    "id" : "PrescipcionEj",
    "meta" : {
      "profile" : ["https://interoperabilidad.minsal.cl/fhir/ig/snre/StructureDefinition/RecetaPrescripcionCl"]
    },
    "status" : "active",
    "intent" : "order",
    "category" : [{
      "coding" : [{
        "system" : "http://terminology.hl7.org/CodeSystem/medicationrequest-category",
        "code" : "discharge",
        "display" : "Discharge"
      }]
    }],
    "medicationReference" : {
      "reference" : "Medication/Medicamento2",
      "display" : "clonazepam 0,5 mg comprimido"
    },
    "subject" : {
      "reference" : "Patient/Paciente1"
    },
    "requester" : {
      "reference" : "Practitioner/Prestador1"
    },
    "groupIdentifier" : {
      "value" : "7f5b95f78a375236d71f"
    },
    "courseOfTherapyType" : {
      "coding" : [{
        "system" : "https://interoperabilidad.minsal.cl/fhir/ig/snre/CodeSystem/CSCodificacionPatron",
        "code" : "acute",
        "display" : "Terapia a corto plazo (aguda)"
      }]
    },
    "dosageInstruction" : [{
      "sequence" : 1,
      "text" : "Administrar 1 Comprimido cada 12 horas por 30 días",
      "timing" : {
        "repeat" : {
          "boundsDuration" : {
            "value" : 30,
            "system" : "http://unitsofmeasure.org",
            "code" : "d"
          },
          "frequency" : 1,
          "period" : 12,
          "periodUnit" : "h"
        }
      },
      "route" : {
        "coding" : [{
          "system" : "https://interoperabilidad.minsal.cl/fhir/ig/snre/CodeSystem/CSViasAdmin",
          "code" : "26643006",
          "display" : "vía Oral route (calificador)"
        }]
      },
      "method" : {
        "coding" : [{
          "system" : "https://interoperabilidad.minsal.cl/fhir/ig/snre/CodeSystem/CSMetodos",
          "code" : "738995006",
          "display" : "Tragar (método de administración)"
        }]
      },
      "doseAndRate" : [{
        "doseQuantity" : {
          "value" : 1,
          "unit" : "Comprimido",
          "system" : "https://rme.hl7chile.cl/CodeSystem/CSUnidadAsistencial",
          "code" : "comprimido"
        }
      }]
    }],
    "dispenseRequest" : {
      "validityPeriod" : {
        "start" : "2022-08-19",
        "end" : "2022-09-18"
      },
      "quantity" : {
        "value" : 60
      }
    }
  },
  {
    "resourceType" : "MedicationRequest",
    "id" : "Receta4",
    "meta" : {
      "profile" : ["https://interoperabilidad.minsal.cl/fhir/ig/snre/StructureDefinition/RecetaPrescripcionCl"]
    },
    "identifier" : [{
      "type" : {
        "coding" : [{
          "system" : "https://interoperabilidad.minsal.cl/fhir/ig/snre/CodeSystem/CSTipoPrescripcion",
          "code" : "Id_Local",
          "display" : "Id_Local"
        }]
      },
      "system" : "https://innovaquidad.cl/integracion_minsal/idRecetaElectronica",
      "value" : "e815615ef9ee7afb52be",
      "assigner" : {
        "identifier" : {
          "system" : "https://api-receta.minsal.cl/v2Organization/8qj5s1ostjswt3r95vnv"
        },
        "display" : "Centro de Salud Familiar Juan Pablo II (La Serena)"
      }
    }],
    "status" : "active",
    "intent" : "order",
    "category" : [{
      "coding" : [{
        "system" : "http://terminology.hl7.org/CodeSystem/medicationrequest-category",
        "code" : "outpatient",
        "display" : "Outpatient"
      }]
    }],
    "medicationReference" : {
      "reference" : "Medication/Medicamento2",
      "display" : "prednisona 20 mg comprimido"
    },
    "subject" : {
      "reference" : "Patient/Paciente1"
    },
    "requester" : {
      "reference" : "Practitioner/Prestador1"
    },
    "groupIdentifier" : {
      "value" : "7f5b95f78a375236d71f"
    },
    "courseOfTherapyType" : {
      "coding" : [{
        "system" : "https://interoperabilidad.minsal.cl/fhir/ig/snre/CodeSystem/CSCodificacionPatron",
        "code" : "seasonal",
        "display" : "Por temporada"
      }]
    },
    "dosageInstruction" : [{
      "sequence" : 1,
      "text" : "Administrar 1 Comprimido cada 4 horas por 24 horas",
      "timing" : {
        "repeat" : {
          "boundsDuration" : {
            "value" : 24,
            "system" : "http://unitsofmeasure.org",
            "code" : "h"
          },
          "frequency" : 1,
          "period" : 4,
          "periodUnit" : "h"
        }
      },
      "route" : {
        "coding" : [{
          "system" : "https://interoperabilidad.minsal.cl/fhir/ig/snre/CodeSystem/CSViasAdmin",
          "code" : "26643006",
          "display" : "vía Oral route (calificador)"
        }]
      },
      "method" : {
        "coding" : [{
          "system" : "https://interoperabilidad.minsal.cl/fhir/ig/snre/CodeSystem/CSMetodos",
          "code" : "738995006",
          "display" : "Tragar (método de administración)"
        }]
      },
      "doseAndRate" : [{
        "doseQuantity" : {
          "value" : 1,
          "unit" : "Comprimido",
          "system" : "https://rme.hl7chile.cl/CodeSystem/CSUnidadAsistencial",
          "code" : "comprimido"
        }
      }]
    }],
    "dispenseRequest" : {
      "validityPeriod" : {
        "start" : "2022-08-19",
        "end" : "2022-08-20"
      },
      "performer" : {
        "reference" : "Organization/ORG1",
        "display" : "Centro de Salud Familiar Juan Pablo II (La Serena)"
      }
    }
  }],
  "basedOn" : [{
    "reference" : "#PrescipcionEj"
  },
  {
    "reference" : "#Receta4"
  }],
  "groupIdentifier" : {
    "value" : "7f5b95f78a375236d71f"
  },
  "status" : "active",
  "intent" : "order",
  "subject" : {
    "reference" : "Patient/Paciente1"
  },
  "authoredOn" : "2022-08-20T15:02:12.314Z"
}