{
  "resourceType" : "Bundle",
  "id" : "EjBundleAgendarCirugia",
  "meta" : {
    "profile" : ["https://interoperabilidad.minsal.cl/fhir/ig/quirurgico/StructureDefinition/BundleAgendarCirugiaLE"]
  },
  "type" : "transaction",
  "entry" : [{
    "fullUrl" : "urn:uuid:0708a908-fc3a-48ea-90e7-b5cd0e516e30",
    "resource" : {
      "resourceType" : "Appointment",
      "id" : "0708a908-fc3a-48ea-90e7-b5cd0e516e30",
      "meta" : {
        "profile" : ["https://interoperabilidad.minsal.cl/fhir/ig/quirurgico/StructureDefinition/AppointmentAgendarLE"]
      },
      "text" : {
        "status" : "extensions",
        "div" : "<div xmlns=\"http://www.w3.org/1999/xhtml\"><a name=\"Appointment_0708a908-fc3a-48ea-90e7-b5cd0e516e30\"> </a><p class=\"res-header-id\"><b>Generated Narrative: Cita 0708a908-fc3a-48ea-90e7-b5cd0e516e30</b></p><a name=\"0708a908-fc3a-48ea-90e7-b5cd0e516e30\"> </a><a name=\"hc0708a908-fc3a-48ea-90e7-b5cd0e516e30\"> </a><div style=\"display: inline-block; background-color: #d9e0e7; padding: 6px; margin: 4px; border: 1px solid #8da1b4; border-radius: 5px; line-height: 60%\"><p style=\"margin-bottom: 0px\"/><p style=\"margin-bottom: 0px\">Profile: <a href=\"StructureDefinition-AppointmentAgendarLE.html\">Appointment Agendar LE</a></p></div><p><b>Medio de Contacto</b>: <span title=\"Codes:{https://interoperabilidad.minsal.cl/fhir/ig/quirurgico/CodeSystem/CSMediodeContacto 3}\">Llamada</span></p><blockquote><p><b>Extension ContactadoLE</b></p><ul><li>Contactado: true</li></ul></blockquote><p><b>identifier</b>: CITA-20241130-001</p><p><b>status</b>: Booked</p><p><b>serviceType</b>: <span title=\"Codes:{https://interoperabilidad.minsal.cl/fhir/ig/quirurgico/CodeSystem/CSTipoServicioAgendamiento 2}\">Agendamiento de quirófano</span></p><p><b>appointmentType</b>: <span title=\"Codes:{https://interoperabilidad.minsal.cl/fhir/ig/quirurgico/CodeSystem/CSTipoAgendamiento 1}\">Electivo Normal</span></p><p><b>start</b>: 2024-11-12 10:00:00-0400</p><p><b>end</b>: 2024-11-12 11:00:00-0400</p><p><b>created</b>: 2024-10-27 14:00:00-0400</p><p><b>basedOn</b>: <a href=\"ServiceRequest-38a17703-0731-4c3f-88fd-1202dc99d7ce.html\">ServiceRequest estructura del pulmón</a></p><blockquote><p><b>participant</b></p><p><b>actor</b>: <a href=\"Patient-22e862c5-6d96-44ec-869c-dba001058cb3.html\">Juan Pérez (official) Male, DoB: 1980-01-01 ( RUN: 4444444-4)</a></p><p><b>status</b>: Accepted</p></blockquote><blockquote><p><b>participant</b></p><p><b>actor</b>: <a href=\"Bundle-EjBundleAgendarCirugia.html#urn-uuid-ec19af63-cab4-46b5-a5d7-8df62f596e41\">PractitionerRole Planificador</a></p><p><b>status</b>: Accepted</p></blockquote></div>"
      },
      "extension" : [{
        "url" : "https://interoperabilidad.minsal.cl/fhir/ig/quirurgico/StructureDefinition/ExtensionMediodeContacto",
        "valueCodeableConcept" : {
          "coding" : [{
            "system" : "https://interoperabilidad.minsal.cl/fhir/ig/quirurgico/CodeSystem/CSMediodeContacto",
            "code" : "3",
            "display" : "Llamada"
          }]
        }
      },
      {
        "extension" : [{
          "url" : "Contactado",
          "valueBoolean" : true
        }],
        "url" : "https://interoperabilidad.minsal.cl/fhir/ig/quirurgico/StructureDefinition/Contactado"
      }],
      "identifier" : [{
        "value" : "CITA-20241130-001"
      }],
      "status" : "booked",
      "serviceType" : [{
        "coding" : [{
          "system" : "https://interoperabilidad.minsal.cl/fhir/ig/quirurgico/CodeSystem/CSTipoServicioAgendamiento",
          "code" : "2",
          "display" : "Agendamiento de quirófano"
        }]
      }],
      "appointmentType" : {
        "coding" : [{
          "system" : "https://interoperabilidad.minsal.cl/fhir/ig/quirurgico/CodeSystem/CSTipoAgendamiento",
          "code" : "1",
          "display" : "Electivo Normal"
        }]
      },
      "start" : "2024-11-12T10:00:00-04:00",
      "end" : "2024-11-12T11:00:00-04:00",
      "created" : "2024-10-27T14:00:00-04:00",
      "basedOn" : [{
        "reference" : "ServiceRequest/38a17703-0731-4c3f-88fd-1202dc99d7ce"
      }],
      "participant" : [{
        "actor" : {
          "reference" : "Patient/22e862c5-6d96-44ec-869c-dba001058cb3",
          "type" : "Patient"
        },
        "status" : "accepted"
      },
      {
        "actor" : {
          "reference" : "urn:uuid:ec19af63-cab4-46b5-a5d7-8df62f596e41",
          "type" : "PractitionerRole"
        },
        "status" : "accepted"
      }]
    },
    "request" : {
      "method" : "POST",
      "url" : "Appointment"
    }
  },
  {
    "fullUrl" : "urn:uuid:2d5d9db4-6ade-43c9-b4f5-cc68b9c7f210",
    "resource" : {
      "resourceType" : "Practitioner",
      "id" : "2d5d9db4-6ade-43c9-b4f5-cc68b9c7f210",
      "meta" : {
        "profile" : ["https://interoperabilidad.minsal.cl/fhir/ig/quirurgico/StructureDefinition/PractitionerProfesionalLE"]
      },
      "text" : {
        "status" : "generated",
        "div" : "<div xmlns=\"http://www.w3.org/1999/xhtml\"><a name=\"Practitioner_2d5d9db4-6ade-43c9-b4f5-cc68b9c7f210\"> </a><p class=\"res-header-id\"><b>Generated Narrative: Practicante / Profesional 2d5d9db4-6ade-43c9-b4f5-cc68b9c7f210</b></p><a name=\"2d5d9db4-6ade-43c9-b4f5-cc68b9c7f210\"> </a><a name=\"hc2d5d9db4-6ade-43c9-b4f5-cc68b9c7f210\"> </a><div style=\"display: inline-block; background-color: #d9e0e7; padding: 6px; margin: 4px; border: 1px solid #8da1b4; border-radius: 5px; line-height: 60%\"><p style=\"margin-bottom: 0px\"/><p style=\"margin-bottom: 0px\">Profile: <a href=\"StructureDefinition-PractitionerProfesionalLE.html\">Prestador Profesional LE</a></p></div><p><b>identifier</b>: RUN/55555555-5\u00a0(use:\u00a0official,\u00a0)</p><p><b>name</b>: Paula Hernandez (Official)</p><p><b>birthDate</b>: 1990-05-15</p><h3>Qualifications</h3><table class=\"grid\"><tr><td style=\"display: none\">-</td><td><b>Identifier</b></td><td><b>Code</b></td></tr><tr><td style=\"display: none\">*</td><td>cert</td><td><span title=\"Codes:{https://interoperabilidad.minsal.cl/fhir/ig/quirurgico/CodeSystem/CSTituloProfesional 3}\">Enfermera</span></td></tr></table></div>"
      },
      "identifier" : [{
        "use" : "official",
        "type" : {
          "coding" : [{
            "system" : "https://hl7chile.cl/fhir/ig/clcore/CodeSystem/CSTipoIdentificador",
            "code" : "01"
          }]
        },
        "system" : "http://www.registrocivil.cl",
        "value" : "55555555-5"
      }],
      "name" : [{
        "use" : "official",
        "family" : "Hernandez",
        "_family" : {
          "extension" : [{
            "url" : "https://hl7chile.cl/fhir/ig/clcore/StructureDefinition/SegundoApellido",
            "valueString" : "Navarro"
          }]
        },
        "given" : ["Paula"]
      }],
      "birthDate" : "1990-05-15",
      "qualification" : [{
        "identifier" : [{
          "value" : "cert"
        }],
        "code" : {
          "coding" : [{
            "system" : "https://interoperabilidad.minsal.cl/fhir/ig/quirurgico/CodeSystem/CSTituloProfesional",
            "code" : "3",
            "display" : "ENFERMERAS(OS)"
          }],
          "text" : "Enfermera"
        }
      }]
    },
    "request" : {
      "method" : "POST",
      "url" : "Practitioner",
      "ifNoneExist" : "identifier=http://www.registrocivil.cl|55555555-5"
    }
  },
  {
    "fullUrl" : "urn:uuid:ec19af63-cab4-46b5-a5d7-8df62f596e41",
    "resource" : {
      "resourceType" : "PractitionerRole",
      "id" : "ec19af63-cab4-46b5-a5d7-8df62f596e41",
      "meta" : {
        "profile" : ["https://interoperabilidad.minsal.cl/fhir/ig/quirurgico/StructureDefinition/PractitionerRoleLE"]
      },
      "text" : {
        "status" : "generated",
        "div" : "<div xmlns=\"http://www.w3.org/1999/xhtml\"><a name=\"PractitionerRole_ec19af63-cab4-46b5-a5d7-8df62f596e41\"> </a><p class=\"res-header-id\"><b>Generated Narrative: RolProfesional ec19af63-cab4-46b5-a5d7-8df62f596e41</b></p><a name=\"ec19af63-cab4-46b5-a5d7-8df62f596e41\"> </a><a name=\"hcec19af63-cab4-46b5-a5d7-8df62f596e41\"> </a><div style=\"display: inline-block; background-color: #d9e0e7; padding: 6px; margin: 4px; border: 1px solid #8da1b4; border-radius: 5px; line-height: 60%\"><p style=\"margin-bottom: 0px\"/><p style=\"margin-bottom: 0px\">Profile: <a href=\"StructureDefinition-PractitionerRoleLE.html\">PractitionerRole LE</a></p></div><p><b>practitioner</b>: <a href=\"Bundle-EjBundleAgendarCirugia.html#urn-uuid-2d5d9db4-6ade-43c9-b4f5-cc68b9c7f210\">Practitioner Paula Hernandez (official)</a></p><p><b>organization</b>: <a href=\"Organization-5491b8d5-e06c-4f89-beb7-75a1989cdc81.html\">Organization Hospital Clínico Metropolitano La Florida Dra. Eloísa Díaz Insunza</a></p><p><b>code</b>: <span title=\"Codes:{https://interoperabilidad.minsal.cl/fhir/ig/quirurgico/CodeSystem/CSPractitionerTipoRolLE planificador}\">Planificador</span></p></div>"
      },
      "practitioner" : {
        "reference" : "urn:uuid:2d5d9db4-6ade-43c9-b4f5-cc68b9c7f210"
      },
      "organization" : {
        "reference" : "Organization/5491b8d5-e06c-4f89-beb7-75a1989cdc81"
      },
      "code" : [{
        "coding" : [{
          "system" : "https://interoperabilidad.minsal.cl/fhir/ig/quirurgico/CodeSystem/CSPractitionerTipoRolLE",
          "code" : "planificador"
        }]
      }]
    },
    "request" : {
      "method" : "POST",
      "url" : "PractitionerRole",
      "ifNoneExist" : "identifier=http://www.registrocivil.cl|33333333-3&code=http://fhir.minsal.cl/CodeSystem/CSPractitionerTipoRolLE|planificador"
    }
  }]
}