<?xml version="1.0" encoding="UTF-8"?>

<Bundle xmlns="http://hl7.org/fhir">
  <id value="EjBundleCierre"/>
  <meta>
    <profile value="https://interoperabilidad.minsal.cl/fhir/ig/quirurgico/StructureDefinition/BundleCierreLE"/>
  </meta>
  <type value="transaction"/>
  <entry>
    <fullUrl value="urn:uuid:38a17703-0731-4c3f-88fd-1202dc99d7ce"/>
    <resource>
      <ServiceRequest>
        <id value="38a17703-0731-4c3f-88fd-1202dc99d7ce"/>
        <meta>
          <profile value="https://interoperabilidad.minsal.cl/fhir/ig/quirurgico/StructureDefinition/ServiceRequestCirugiaLE"/>
        </meta>
        <text>
          <status value="extensions"/><div xmlns="http://www.w3.org/1999/xhtml"><a name="ServiceRequest_38a17703-0731-4c3f-88fd-1202dc99d7ce"> </a><p class="res-header-id"><b>Generated Narrative: PeticiónServicio 38a17703-0731-4c3f-88fd-1202dc99d7ce</b></p><a name="38a17703-0731-4c3f-88fd-1202dc99d7ce"> </a><a name="hc38a17703-0731-4c3f-88fd-1202dc99d7ce"> </a><div style="display: inline-block; background-color: #d9e0e7; padding: 6px; margin: 4px; border: 1px solid #8da1b4; border-radius: 5px; line-height: 60%"><p style="margin-bottom: 0px"/><p style="margin-bottom: 0px">Profile: <a href="StructureDefinition-ServiceRequestCirugiaLE.html">ServiceRequest Cirugía LE</a></p></div><p><b>Motivo Cierre Solicitud Cirugía</b>: <span title="Codes:{https://interoperabilidad.minsal.cl/fhir/ig/quirurgico/CodeSystem/CSMotivoCierreSolicitudCirugia 3}">Corresponde a la realización del examen procedimiento ejecutado (2)</span></p><p><b>Extension String Fundamento Priorizacion</b>: Paciente con dolor abdominal crónico</p><p><b>Requirió Comite</b>: false</p><p><b>Extension Tipo Priorización</b>: <span title="Codes:{https://interoperabilidad.minsal.cl/fhir/ig/quirurgico/CodeSystem/CSTipoPriorizacion 5}">Usuarios con dos o más años en LE</span></p><p><b>identifier</b>: CIR-2024-0001</p><p><b>status</b>: Completed</p><p><b>intent</b>: Order</p><p><b>category</b>: <span title="Codes:{https://interoperabilidad.minsal.cl/fhir/ig/quirurgico/CodeSystem/CSTipoCirugiaPropuesta 1}">Cirugía Mayor Electiva</span></p><p><b>priority</b>: Routine</p><p><b>code</b>: <span title="Codes:{http://snomed.info/sct 39607008}">estructura del pulmón</span></p><p><b>subject</b>: <a href="Patient-22e862c5-6d96-44ec-869c-dba001058cb3.html">Juan Pérez (official) Male, DoB: 1980-01-01 ( RUN: 4444444-4)</a></p><p><b>encounter</b>: <a href="Encounter-23b7f034-a998-44d7-9be4-0281be8222c0.html">Encounter: identifier = ENC-20241130-001; status = finished; class = Presencial (Modalidad Atencion Codigo#1); type = Nueva; period = 2024-11-30 10:00:00-0400 --&gt; (ongoing)</a></p><p><b>authoredOn</b>: 2024-12-02 10:00:00-0400</p><p><b>requester</b>: <a href="PractitionerRole-96f2b566-b17b-4e4e-ada0-3986748990ee.html">PractitionerRole Indicador</a></p><p><b>performer</b>: <a href="Bundle-EjBundleCierre.html#urn-uuid-5a4ca080-8d59-4409-92f3-e6fc1eb855d6">PractitionerRole Terminador</a></p><p><b>reasonReference</b>: <a href="Condition-b97a87f6-060d-48de-9e4d-db93518fd278.html">Condition Other and unspecified ventral hernia without obstruction or gangrene</a></p></div>
        </text>
        <extension url="https://interoperabilidad.minsal.cl/fhir/ig/quirurgico/StructureDefinition/ExtensionMotivoCierreSolicitudCirugia">
          <valueCodeableConcept>
            <coding>
              <system value="https://interoperabilidad.minsal.cl/fhir/ig/quirurgico/CodeSystem/CSMotivoCierreSolicitudCirugia"/>
              <code value="3"/>
              <display value="Corresponde a la realización del examen procedimiento ejecutado (2)"/>
            </coding>
          </valueCodeableConcept>
        </extension>
        <extension url="https://interoperabilidad.minsal.cl/fhir/ig/quirurgico/StructureDefinition/ExtensionStringFundamentoPriorizacion">
          <valueString value="Paciente con dolor abdominal crónico"/>
        </extension>
        <extension url="https://interoperabilidad.minsal.cl/fhir/ig/quirurgico/StructureDefinition/RequirioComite">
          <valueBoolean value="false"/>
        </extension>
        <extension url="https://interoperabilidad.minsal.cl/fhir/ig/quirurgico/StructureDefinition/ExtensionTipoPriorizacion">
          <valueCodeableConcept>
            <coding>
              <system value="https://interoperabilidad.minsal.cl/fhir/ig/quirurgico/CodeSystem/CSTipoPriorizacion"/>
              <code value="5"/>
              <display value="Usuarios con dos o más años en LE"/>
            </coding>
          </valueCodeableConcept>
        </extension>
        <identifier>
          <value value="CIR-2024-0001"/>
        </identifier>
        <status value="completed"/>
        <intent value="order"/>
        <category>
          <coding>
            <system value="https://interoperabilidad.minsal.cl/fhir/ig/quirurgico/CodeSystem/CSTipoCirugiaPropuesta"/>
            <code value="1"/>
            <display value="Cirugía Mayor Electiva"/>
          </coding>
        </category>
        <priority value="routine"/>
        <code>
          <coding>
            <system value="http://snomed.info/sct"/>
            <code value="39607008"/>
          </coding>
        </code>
        <subject>
          <reference value="Patient/22e862c5-6d96-44ec-869c-dba001058cb3"/>
        </subject>
        <encounter>
          <reference value="Encounter/23b7f034-a998-44d7-9be4-0281be8222c0"/>
        </encounter>
        <authoredOn value="2024-12-02T10:00:00-04:00"/>
        <requester>
          <reference value="PractitionerRole/96f2b566-b17b-4e4e-ada0-3986748990ee"/>
        </requester>
        <performer>
          <reference value="urn:uuid:5a4ca080-8d59-4409-92f3-e6fc1eb855d6"/>
        </performer>
        <reasonReference>
          <reference value="Condition/b97a87f6-060d-48de-9e4d-db93518fd278"/>
        </reasonReference>
      </ServiceRequest>
    </resource>
    <request>
      <method value="PUT"/>
      <url value="ServiceRequest?identifier=CIR-2024-0001"/>
    </request>
  </entry>
  <entry>
    <fullUrl value="urn:uuid:2d5d9db4-6ade-43c9-b4f5-cc68b9c7f210"/>
    <resource>
      <Practitioner>
        <id value="2d5d9db4-6ade-43c9-b4f5-cc68b9c7f210"/>
        <meta>
          <profile value="https://interoperabilidad.minsal.cl/fhir/ig/quirurgico/StructureDefinition/PractitionerProfesionalLE"/>
        </meta>
        <text>
          <status value="generated"/><div xmlns="http://www.w3.org/1999/xhtml"><a name="Practitioner_2d5d9db4-6ade-43c9-b4f5-cc68b9c7f210"> </a><p class="res-header-id"><b>Generated Narrative: Practicante / Profesional 2d5d9db4-6ade-43c9-b4f5-cc68b9c7f210</b></p><a name="2d5d9db4-6ade-43c9-b4f5-cc68b9c7f210"> </a><a name="hc2d5d9db4-6ade-43c9-b4f5-cc68b9c7f210"> </a><div style="display: inline-block; background-color: #d9e0e7; padding: 6px; margin: 4px; border: 1px solid #8da1b4; border-radius: 5px; line-height: 60%"><p style="margin-bottom: 0px"/><p style="margin-bottom: 0px">Profile: <a href="StructureDefinition-PractitionerProfesionalLE.html">Prestador Profesional LE</a></p></div><p><b>identifier</b>: RUN/55555555-5 (use: official, )</p><p><b>name</b>: Paula Hernandez (Official)</p><p><b>birthDate</b>: 1990-05-15</p><h3>Qualifications</h3><table class="grid"><tr><td style="display: none">-</td><td><b>Identifier</b></td><td><b>Code</b></td></tr><tr><td style="display: none">*</td><td>cert</td><td><span title="Codes:{https://interoperabilidad.minsal.cl/fhir/ig/quirurgico/CodeSystem/CSTituloProfesional 3}">Enfermera</span></td></tr></table></div>
        </text>
        <identifier>
          <use value="official"/>
          <type>
            <coding>
              <system value="https://hl7chile.cl/fhir/ig/clcore/CodeSystem/CSTipoIdentificador"/>
              <code value="01"/>
            </coding>
          </type>
          <system value="http://www.registrocivil.cl"/>
          <value value="55555555-5"/>
        </identifier>
        <name>
          <use value="official"/>
          <family value="Hernandez">
            <extension url="https://hl7chile.cl/fhir/ig/clcore/StructureDefinition/SegundoApellido">
              <valueString value="Navarro"/>
            </extension>
          </family>
          <given value="Paula"/>
        </name>
        <birthDate value="1990-05-15"/>
        <qualification>
          <identifier>
            <value value="cert"/>
          </identifier>
          <code>
            <coding>
              <system value="https://interoperabilidad.minsal.cl/fhir/ig/quirurgico/CodeSystem/CSTituloProfesional"/>
              <code value="3"/>
              <display value="ENFERMERAS(OS)"/>
            </coding>
            <text value="Enfermera"/>
          </code>
        </qualification>
      </Practitioner>
    </resource>
    <request>
      <method value="POST"/>
      <url value="Practitioner"/>
      <ifNoneExist value="identifier=http://www.registrocivil.cl|55555555-5"/>
    </request>
  </entry>
  <entry>
    <fullUrl value="urn:uuid:5a4ca080-8d59-4409-92f3-e6fc1eb855d6"/>
    <resource>
      <PractitionerRole>
        <id value="5a4ca080-8d59-4409-92f3-e6fc1eb855d6"/>
        <meta>
          <profile value="https://interoperabilidad.minsal.cl/fhir/ig/quirurgico/StructureDefinition/PractitionerRoleLE"/>
        </meta>
        <text>
          <status value="generated"/><div xmlns="http://www.w3.org/1999/xhtml"><a name="PractitionerRole_5a4ca080-8d59-4409-92f3-e6fc1eb855d6"> </a><p class="res-header-id"><b>Generated Narrative: RolProfesional 5a4ca080-8d59-4409-92f3-e6fc1eb855d6</b></p><a name="5a4ca080-8d59-4409-92f3-e6fc1eb855d6"> </a><a name="hc5a4ca080-8d59-4409-92f3-e6fc1eb855d6"> </a><div style="display: inline-block; background-color: #d9e0e7; padding: 6px; margin: 4px; border: 1px solid #8da1b4; border-radius: 5px; line-height: 60%"><p style="margin-bottom: 0px"/><p style="margin-bottom: 0px">Profile: <a href="StructureDefinition-PractitionerRoleLE.html">PractitionerRole LE</a></p></div><p><b>practitioner</b>: <a href="Bundle-EjBundleAgendarCirugia.html#urn-uuid-2d5d9db4-6ade-43c9-b4f5-cc68b9c7f210">Practitioner Paula Hernandez (official)</a></p><p><b>organization</b>: <a href="Organization-5491b8d5-e06c-4f89-beb7-75a1989cdc81.html">Organization Hospital Clínico Metropolitano La Florida Dra. Eloísa Díaz Insunza</a></p><p><b>code</b>: <span title="Codes:{https://interoperabilidad.minsal.cl/fhir/ig/quirurgico/CodeSystem/CSPractitionerTipoRolLE terminador}">Terminador</span></p></div>
        </text>
        <practitioner>
          <reference value="urn:uuid:2d5d9db4-6ade-43c9-b4f5-cc68b9c7f210"/>
        </practitioner>
        <organization>
          <reference value="Organization/5491b8d5-e06c-4f89-beb7-75a1989cdc81"/>
        </organization>
        <code>
          <coding>
            <system value="https://interoperabilidad.minsal.cl/fhir/ig/quirurgico/CodeSystem/CSPractitionerTipoRolLE"/>
            <code value="terminador"/>
          </coding>
        </code>
      </PractitionerRole>
    </resource>
    <request>
      <method value="POST"/>
      <url value="PractitionerRole"/>
      <ifNoneExist value="practitioner.identifier=http://www.registrocivil.cl|33333333-3&amp;role=https://interoperabilidad.minsal.cl/fhir/ig/quirurgico/CodeSystem/CSPractitionerTipoRolLE|terminador"/>
    </request>
  </entry>
</Bundle>