<?xml version="1.0" encoding="UTF-8"?>

<Bundle xmlns="http://hl7.org/fhir">
  <id value="EJ1BundleAddmission"/>
  <meta>
    <profile value="http://proceso-urgencia.minsal.cl/StructureDefinition/bundle-admision"/>
  </meta>
  <type value="message"/>
  <timestamp value="2024-05-05T00:00:00Z"/>
  <entry>
    <fullUrl value="urn:uuid:24843ad3-d657-463b-a137-33c38def43e5"/>
    <resource>
      <MessageHeader>
        <id value="24843ad3-d657-463b-a137-33c38def43e5"/>
        <meta>
          <profile value="http://proceso-urgencia.minsal.cl/StructureDefinition/message-header-urgencia"/>
        </meta>
        <text>
          <status value="generated"/><div xmlns="http://www.w3.org/1999/xhtml"><a name="MessageHeader_24843ad3-d657-463b-a137-33c38def43e5"> </a><p class="res-header-id"><b>Generated Narrative: MessageHeader 24843ad3-d657-463b-a137-33c38def43e5</b></p><a name="24843ad3-d657-463b-a137-33c38def43e5"> </a><a name="hc24843ad3-d657-463b-a137-33c38def43e5"> </a><a name="24843ad3-d657-463b-a137-33c38def43e5-en-US"> </a><p><b>event</b>: <a href="CodeSystem-eventos-urgencia.html#eventos-urgencia-admision">CSEventosUrgencia</a> admision: Admisión</p><h3>Destinations</h3><table class="grid"><tr><td style="display: none">-</td><td><b>Name</b></td><td><b>Endpoint</b></td></tr><tr><td style="display: none">*</td><td>FHIR Server Ministerio de Salud</td><td><a href="https://fhir.minsal.cl">https://fhir.minsal.cl</a></td></tr></table><p><b>sender</b>: <a href="Bundle-EJ1BundleAddmission.html#urn-uuid-5491b8d5-e06c-4f89-beb7-75a1989cdc81">Bundle: type = message; timestamp = 2024-05-05 00:00:00+0000</a></p><h3>Sources</h3><table class="grid"><tr><td style="display: none">-</td><td><b>Name</b></td><td><b>Software</b></td><td><b>Endpoint</b></td></tr><tr><td style="display: none">*</td><td>Hospital Clínico Metropolitano La Florida Dra. Eloísa Díaz Insunza</td><td>Sistema de Urgencia Electrónica</td><td><a href="https://fhir.hospitalflorida.cl">https://fhir.hospitalflorida.cl</a></td></tr></table><p><b>focus</b>: </p><ul><li><a href="Bundle-EJ1BundleAddmission.html#urn-uuid-391d2365-379b-4b3a-b416-89ae62e2f501">Bundle: type = message; timestamp = 2024-05-05 00:00:00+0000</a></li><li><a href="Bundle-EJ1BundleAddmission.html#urn-uuid-894bdb3a-8a18-44db-ab64-b13262a432cc">Bundle: type = message; timestamp = 2024-05-05 00:00:00+0000</a></li></ul></div>
        </text>
        <eventCoding>
          <system value="http://proceso-urgencia.minsal.cl/CodeSystem/eventos-urgencia"/>
          <code value="admision"/>
          <display value="Admisión"/>
        </eventCoding>
        <destination>
          <name value="FHIR Server Ministerio de Salud"/>
          <endpoint value="https://fhir.minsal.cl"/>
        </destination>
        <sender>
          <reference value="urn:uuid:5491b8d5-e06c-4f89-beb7-75a1989cdc81"/>
        </sender>
        <source>
          <name value="Hospital Clínico Metropolitano La Florida Dra. Eloísa Díaz Insunza"/>
          <software value="Sistema de Urgencia Electrónica"/>
          <endpoint value="https://fhir.hospitalflorida.cl"/>
        </source>
        <focus>
          <reference value="urn:uuid:391d2365-379b-4b3a-b416-89ae62e2f501"/>
        </focus>
        <focus>
          <reference value="urn:uuid:894bdb3a-8a18-44db-ab64-b13262a432cc"/>
        </focus>
      </MessageHeader>
    </resource>
  </entry>
  <entry>
    <fullUrl value="urn:uuid:894bdb3a-8a18-44db-ab64-b13262a432cc"/>
    <resource>
      <EpisodeOfCare>
        <id value="894bdb3a-8a18-44db-ab64-b13262a432cc"/>
        <meta>
          <profile value="http://proceso-urgencia.minsal.cl/StructureDefinition/episodio-urgencia"/>
        </meta>
        <text>
          <status value="generated"/><div xmlns="http://www.w3.org/1999/xhtml"><a name="EpisodeOfCare_894bdb3a-8a18-44db-ab64-b13262a432cc"> </a><p class="res-header-id"><b>Generated Narrative: EpisodeOfCare 894bdb3a-8a18-44db-ab64-b13262a432cc</b></p><a name="894bdb3a-8a18-44db-ab64-b13262a432cc"> </a><a name="hc894bdb3a-8a18-44db-ab64-b13262a432cc"> </a><a name="894bdb3a-8a18-44db-ab64-b13262a432cc-en-US"> </a><p><b>identifier</b>: 123456-1</p><p><b>status</b>: Active</p><p><b>type</b>: <span title="Codes:{http://terminology.hl7.org/CodeSystem/v3-ActCode EMER}">emergency</span></p><p><b>patient</b>: <a href="Bundle-EJ1BundleAddmission.html#urn-uuid-6ec6dc25-4b65-4165-a545-9b796f60b997">Bundle: type = message; timestamp = 2024-05-05 00:00:00+0000</a></p><p><b>managingOrganization</b>: <a href="Bundle-EJ1BundleAddmission.html#urn-uuid-5491b8d5-e06c-4f89-beb7-75a1989cdc81">Bundle: type = message; timestamp = 2024-05-05 00:00:00+0000</a></p><p><b>period</b>: 2024-05-04 12:00:00+0000 --&gt; (ongoing)</p></div>
        </text>
        <identifier>
          <value value="123456-1"/>
        </identifier>
        <status value="active"/>
        <type>
          <coding>
            <system value="http://terminology.hl7.org/CodeSystem/v3-ActCode"/>
            <code value="EMER"/>
          </coding>
        </type>
        <patient>
          <reference value="urn:uuid:6ec6dc25-4b65-4165-a545-9b796f60b997"/>
        </patient>
        <managingOrganization>
          <reference value="urn:uuid:5491b8d5-e06c-4f89-beb7-75a1989cdc81"/>
        </managingOrganization>
        <period>
          <start value="2024-05-04T12:00:00Z"/>
        </period>
      </EpisodeOfCare>
    </resource>
  </entry>
  <entry>
    <fullUrl value="urn:uuid:6ec6dc25-4b65-4165-a545-9b796f60b997"/>
    <resource>
      <Patient>
        <id value="6ec6dc25-4b65-4165-a545-9b796f60b997"/>
        <meta>
          <profile value="http://proceso-urgencia.minsal.cl/StructureDefinition/PacienteUrgencia"/>
        </meta>
        <text>
          <status value="generated"/><div xmlns="http://www.w3.org/1999/xhtml"><a name="Patient_6ec6dc25-4b65-4165-a545-9b796f60b997"> </a><p class="res-header-id"><b>Generated Narrative: Patient 6ec6dc25-4b65-4165-a545-9b796f60b997</b></p><a name="6ec6dc25-4b65-4165-a545-9b796f60b997"> </a><a name="hc6ec6dc25-4b65-4165-a545-9b796f60b997"> </a><a name="6ec6dc25-4b65-4165-a545-9b796f60b997-en-US"> </a><p style="border: 1px #661aff solid; background-color: #e6e6ff; padding: 10px;">Maria Josefína Perez Gonzalez(official) Female, DoB: 1974-12-25 ( Rol Único Nacional: 90000000-6 (use: official, ))</p><hr/><table class="grid"><tr><td style="background-color: #f3f5da" title="Record is active">Active:</td><td>true</td><td style="background-color: #f3f5da" title="Known status of Patient">Deceased:</td><td colspan="3">false</td></tr><tr><td style="background-color: #f3f5da" title="Ways to contact the Patient">Contact Detail</td><td colspan="3"><ul><li>ph: (562) 5555 6473(Work)</li><li>Calle Arrabal Conchita Tejeda Nº 24, Esc. 432(home)</li></ul></td></tr><tr><td style="background-color: #f3f5da" title="País de origen del paciente"><a href="StructureDefinition-PaisOrigenMPI.html">País de origen del paciente</a></td><td colspan="3"><span title="Codes:{https://hl7chile.cl/fhir/ig/clcore/CodeSystem/CodPais 152}">Chile</span></td></tr><tr><td style="background-color: #f3f5da" title="Pueblos Originarios Perteneciente"><a href="StructureDefinition-PueblosOriginariosPerteneciente.html">Pueblos Originarios Perteneciente</a></td><td colspan="3">true</td></tr><tr><td style="background-color: #f3f5da" title="Pueblos Afrodescendiente"><a href="StructureDefinition-PueblosAfrodescendiente.html">Pueblos Afrodescendiente</a></td><td colspan="3">false</td></tr><tr><td style="background-color: #f3f5da" title="Esta extensión incluye códigos de paises"><a href="https://build.fhir.org/ig/HL7Chile/clcore_ig/StructureDefinition-CodigoPaises.html">Codigo de Paises</a></td><td colspan="3"><span title="Codes:{https://hl7chile.cl/fhir/ig/clcore/CodeSystem/CodPais 152}">Chile</span></td></tr><tr><td style="background-color: #f3f5da" title="Almacenar si el paciente pertenece a algun pueblo originario"><a href="StructureDefinition-PueblosOriginarios.html">Pueblos Originarios</a></td><td colspan="3"><span title="Codes:{http://proceso-urgencia.minsal.cl/CodeSystem/PueblosOriginariosCS 07}">Diaguita</span></td></tr><tr><td style="background-color: #f3f5da" title="Previsión de salud del paciente"><a href="StructureDefinition-prevision.html">Previsión</a></td><td colspan="3"><a href="CodeSystem-prevision.html#prevision-1">CSPrevision</a> 1: Fonasa</td></tr><tr><td style="background-color: #f3f5da" title="Identidad De Genero"><a href="https://build.fhir.org/ig/HL7Chile/clcore_ig/StructureDefinition-IdentidadDeGenero.html">Identidad De Genero</a></td><td colspan="3"><span title="Codes:{https://hl7chile.cl/fhir/ig/clcore/CodeSystem/CSIdentidaddeGenero 2}">Femenina</span></td></tr></table></div>
        </text>
        <extension url="http://proceso-urgencia.minsal.cl/StructureDefinition/PueblosOriginariosPerteneciente">
          <valueBoolean value="true"/>
        </extension>
        <extension url="http://proceso-urgencia.minsal.cl/StructureDefinition/PueblosOriginarios">
          <valueCodeableConcept>
            <coding>
              <system value="http://proceso-urgencia.minsal.cl/CodeSystem/PueblosOriginariosCS"/>
              <code value="07"/>
              <display value="Diaguita"/>
            </coding>
          </valueCodeableConcept>
        </extension>
        <extension url="http://proceso-urgencia.minsal.cl/StructureDefinition/PueblosAfrodescendiente">
          <valueBoolean value="false"/>
        </extension>
        <extension url="http://proceso-urgencia.minsal.cl/StructureDefinition/prevision">
          <valueCoding>
            <system value="http://proceso-urgencia.minsal.cl/CodeSystem/prevision"/>
            <code value="1"/>
            <display value="Fonasa"/>
          </valueCoding>
        </extension>
        <extension url="https://hl7chile.cl/fhir/ig/clcore/StructureDefinition/IdentidadDeGenero">
          <valueCodeableConcept>
            <coding>
              <system value="https://hl7chile.cl/fhir/ig/clcore/CodeSystem/CSIdentidaddeGenero"/>
              <code value="2"/>
              <display value="Femenina"/>
            </coding>
          </valueCodeableConcept>
        </extension>
        <extension url="http://proceso-urgencia.minsal.cl/StructureDefinition/PaisOrigenMPI">
          <valueCodeableConcept>
            <coding>
              <system value="https://hl7chile.cl/fhir/ig/clcore/CodeSystem/CodPais"/>
              <code value="152"/>
              <display value="Chile"/>
            </coding>
          </valueCodeableConcept>
        </extension>
        <extension url="https://hl7chile.cl/fhir/ig/clcore/StructureDefinition/CodigoPaises">
          <valueCodeableConcept>
            <coding>
              <system value="https://hl7chile.cl/fhir/ig/clcore/CodeSystem/CodPais"/>
              <code value="152"/>
              <display value="Chile"/>
            </coding>
          </valueCodeableConcept>
        </extension>
        <identifier>
          <use value="official"/>
          <type>
            <extension url="https://hl7chile.cl/fhir/ig/clcore/StructureDefinition/CodigoPaises">
              <valueCodeableConcept>
                <coding>
                  <system value="https://hl7chile.cl/fhir/ig/clcore/CodeSystem/CodPais"/>
                  <code value="152"/>
                  <display value="Chile"/>
                </coding>
              </valueCodeableConcept>
            </extension>
            <coding>
              <system value="https://hl7chile.cl/fhir/ig/clcore/CodeSystem/CSTipoIdentificador"/>
              <code value="01"/>
              <display value="RUN"/>
            </coding>
            <text value="Rol Único Nacional"/>
          </type>
          <value value="90000000-6"/>
          <assigner>
            <display value="Republica de Chile"/>
          </assigner>
        </identifier>
        <active value="true"/>
        <name>
          <use value="official"/>
          <text value="Maria Josefína Perez Gonzalez"/>
          <family value="Perez">
            <extension url="https://hl7chile.cl/fhir/ig/clcore/StructureDefinition/SegundoApellido">
              <valueString value="Gonzalez"/>
            </extension>
          </family>
          <given value="María"/>
          <given value="Josefina"/>
        </name>
        <telecom>
          <system value="phone"/>
          <value value="(562) 5555 6473"/>
          <use value="work"/>
          <rank value="1"/>
        </telecom>
        <gender value="female"/>
        <birthDate value="1974-12-25"/>
        <deceasedBoolean value="false"/>
        <address>
          <use value="home"/>
          <text value="Calle Arrabal Conchita Tejeda Nº 24, Esc. 432"/>
          <line value="Calle Arrabal Conchita Tejeda"/>
          <city value="Huara">
            <extension url="https://hl7chile.cl/fhir/ig/clcore/StructureDefinition/ComunasCl">
              <valueCodeableConcept>
                <coding>
                  <system value="https://hl7chile.cl/fhir/ig/clcore/CodeSystem/CSCodComunasCL"/>
                  <code value="01404"/>
                  <display value="Huara"/>
                </coding>
              </valueCodeableConcept>
            </extension>
          </city>
          <district value="Provincia del Tamarugal">
            <extension url="https://hl7chile.cl/fhir/ig/clcore/StructureDefinition/ProvinciasCl">
              <valueCodeableConcept>
                <coding>
                  <system value="https://hl7chile.cl/fhir/ig/clcore/CodeSystem/CSCodProvinciasCL"/>
                  <code value="014"/>
                  <display value="Tamarugal"/>
                </coding>
              </valueCodeableConcept>
            </extension>
          </district>
          <state value="Región de Tarapacá">
            <extension url="https://hl7chile.cl/fhir/ig/clcore/StructureDefinition/RegionesCl">
              <valueCodeableConcept>
                <coding>
                  <system value="https://hl7chile.cl/fhir/ig/clcore/CodeSystem/CSCodRegionCL"/>
                  <code value="01"/>
                  <display value="Tarapacá"/>
                </coding>
              </valueCodeableConcept>
            </extension>
          </state>
        </address>
      </Patient>
    </resource>
  </entry>
  <entry>
    <fullUrl value="urn:uuid:391d2365-379b-4b3a-b416-89ae62e2f501"/>
    <resource>
      <Encounter>
        <id value="391d2365-379b-4b3a-b416-89ae62e2f501"/>
        <meta>
          <profile value="http://proceso-urgencia.minsal.cl/StructureDefinition/encounter-admision"/>
        </meta>
        <text>
          <status value="generated"/><div xmlns="http://www.w3.org/1999/xhtml"><a name="Encounter_391d2365-379b-4b3a-b416-89ae62e2f501"> </a><p class="res-header-id"><b>Generated Narrative: Encounter 391d2365-379b-4b3a-b416-89ae62e2f501</b></p><a name="391d2365-379b-4b3a-b416-89ae62e2f501"> </a><a name="hc391d2365-379b-4b3a-b416-89ae62e2f501"> </a><a name="391d2365-379b-4b3a-b416-89ae62e2f501-en-US"> </a><p><b>status</b>: Finished</p><p><b>class</b>: <a href="http://terminology.hl7.org/6.0.2/CodeSystem-v3-ActCode.html#v3-ActCode-EMER">ActCode</a> EMER: emergency</p><p><b>serviceType</b>: <span title="Codes:{http://proceso-urgencia.minsal.cl/CodeSystem/eventos-urgencia admision}">Admisión</span></p><p><b>subject</b>: <a href="Bundle-EJ1BundleAddmission.html#urn-uuid-6ec6dc25-4b65-4165-a545-9b796f60b997">Bundle: type = message; timestamp = 2024-05-05 00:00:00+0000</a></p><p><b>episodeOfCare</b>: <a href="Bundle-EJ1BundleAddmission.html#urn-uuid-894bdb3a-8a18-44db-ab64-b13262a432cc">Bundle: type = message; timestamp = 2024-05-05 00:00:00+0000</a></p><h3>Participants</h3><table class="grid"><tr><td style="display: none">-</td><td><b>Type</b></td><td><b>Individual</b></td></tr><tr><td style="display: none">*</td><td><span title="Codes:{http://proceso-urgencia.minsal.cl/CodeSystem/tipos-participante-encounter companion}">Acompañante</span></td><td><a href="Bundle-EJ1BundleAddmission.html#urn-uuid-3cb8e117-fd2c-493f-b1e4-43bf1ae75bd7">Bundle: type = message; timestamp = 2024-05-05 00:00:00+0000</a></td></tr></table><p><b>period</b>: 2024-05-04 12:00:00+0000 --&gt; (ongoing)</p><blockquote><p><b>hospitalization</b></p><p><b>admitSource</b>: <span title="Codes:{http://proceso-urgencia.minsal.cl/CodeSystem/medio-llegada 1}">Ambulancia SAMU</span></p></blockquote><p><b>serviceProvider</b>: <a href="Bundle-EJ1BundleAddmission.html#urn-uuid-5491b8d5-e06c-4f89-beb7-75a1989cdc81">Bundle: type = message; timestamp = 2024-05-05 00:00:00+0000</a></p></div>
        </text>
        <status value="finished"/>
        <class>
          <system value="http://terminology.hl7.org/CodeSystem/v3-ActCode"/>
          <code value="EMER"/>
        </class>
        <serviceType>
          <coding>
            <system value="http://proceso-urgencia.minsal.cl/CodeSystem/eventos-urgencia"/>
            <code value="admision"/>
            <display value="Admisión"/>
          </coding>
        </serviceType>
        <subject>
          <reference value="urn:uuid:6ec6dc25-4b65-4165-a545-9b796f60b997"/>
        </subject>
        <episodeOfCare>
          <reference value="urn:uuid:894bdb3a-8a18-44db-ab64-b13262a432cc"/>
        </episodeOfCare>
        <participant>
          <type>
            <coding>
              <system value="http://proceso-urgencia.minsal.cl/CodeSystem/tipos-participante-encounter"/>
              <code value="companion"/>
              <display value="Acompañante"/>
            </coding>
          </type>
          <individual>
            <reference value="urn:uuid:3cb8e117-fd2c-493f-b1e4-43bf1ae75bd7"/>
          </individual>
        </participant>
        <period>
          <start value="2024-05-04T12:00:00Z"/>
        </period>
        <hospitalization>
          <extension url="http://proceso-urgencia.minsal.cl/StructureDefinition/procedencia">
            <valueCoding>
              <system value="http://proceso-urgencia.minsal.cl/CodeSystem/codigo-procedencia"/>
              <code value="9"/>
              <display value="Domicilio"/>
            </valueCoding>
          </extension>
          <extension url="http://proceso-urgencia.minsal.cl/StructureDefinition/consulta-accidente">
            <valueBoolean value="false"/>
          </extension>
          <extension url="http://proceso-urgencia.minsal.cl/StructureDefinition/ley-previsional">
            <valueCoding>
              <system value="http://proceso-urgencia.minsal.cl/CodeSystem/ley-previsional"/>
              <code value="96"/>
              <display value="Ninguna"/>
            </valueCoding>
          </extension>
          <admitSource>
            <coding>
              <system value="http://proceso-urgencia.minsal.cl/CodeSystem/medio-llegada"/>
              <code value="1"/>
              <display value="Ambulancia SAMU"/>
            </coding>
          </admitSource>
        </hospitalization>
        <serviceProvider>
          <reference value="urn:uuid:5491b8d5-e06c-4f89-beb7-75a1989cdc81"/>
        </serviceProvider>
      </Encounter>
    </resource>
  </entry>
  <entry>
    <fullUrl value="urn:uuid:5491b8d5-e06c-4f89-beb7-75a1989cdc81"/>
    <resource>
      <Organization>
        <id value="5491b8d5-e06c-4f89-beb7-75a1989cdc81"/>
        <meta>
          <profile value="http://proceso-urgencia.minsal.cl/StructureDefinition/organizacion-establecimiento"/>
        </meta>
        <text>
          <status value="generated"/><div xmlns="http://www.w3.org/1999/xhtml"><a name="Organization_5491b8d5-e06c-4f89-beb7-75a1989cdc81"> </a><p class="res-header-id"><b>Generated Narrative: Organization 5491b8d5-e06c-4f89-beb7-75a1989cdc81</b></p><a name="5491b8d5-e06c-4f89-beb7-75a1989cdc81"> </a><a name="hc5491b8d5-e06c-4f89-beb7-75a1989cdc81"> </a><a name="5491b8d5-e06c-4f89-beb7-75a1989cdc81-en-US"> </a><p><b>identifier</b>: <code>http://deis.minsal.cl/establecimientos</code>/114105</p><p><b>active</b>: true</p><p><b>name</b>: Hospital Clínico Metropolitano La Florida Dra. Eloísa Díaz Insunza</p></div>
        </text>
        <extension url="http://proceso-urgencia.minsal.cl/StructureDefinition/servicio-salud">
          <valueCoding>
            <system value="http://proceso-urgencia.minsal.cl/CodeSystem/servicio-salud"/>
            <code value="14"/>
            <display value="Servicio de Salud Metropolitano Sur Oriente"/>
          </valueCoding>
        </extension>
        <identifier>
          <system value="http://deis.minsal.cl/establecimientos"/>
          <value value="114105"/>
        </identifier>
        <active value="true"/>
        <name value="Hospital Clínico Metropolitano La Florida Dra. Eloísa Díaz Insunza"/>
      </Organization>
    </resource>
  </entry>
  <entry>
    <fullUrl value="urn:uuid:3cb8e117-fd2c-493f-b1e4-43bf1ae75bd7"/>
    <resource>
      <RelatedPerson>
        <id value="3cb8e117-fd2c-493f-b1e4-43bf1ae75bd7"/>
        <meta>
          <profile value="http://proceso-urgencia.minsal.cl/StructureDefinition/acompanante-urgencia"/>
        </meta>
        <text>
          <status value="generated"/><div xmlns="http://www.w3.org/1999/xhtml"><a name="RelatedPerson_3cb8e117-fd2c-493f-b1e4-43bf1ae75bd7"> </a><p class="res-header-id"><b>Generated Narrative: RelatedPerson 3cb8e117-fd2c-493f-b1e4-43bf1ae75bd7</b></p><a name="3cb8e117-fd2c-493f-b1e4-43bf1ae75bd7"> </a><a name="hc3cb8e117-fd2c-493f-b1e4-43bf1ae75bd7"> </a><a name="3cb8e117-fd2c-493f-b1e4-43bf1ae75bd7-en-US"> </a><p><b>patient</b>: <a href="Bundle-EJ1BundleAddmission.html#urn-uuid-6ec6dc25-4b65-4165-a545-9b796f60b997">Bundle: type = message; timestamp = 2024-05-05 00:00:00+0000</a></p><p><b>relationship</b>: <span title="Codes:{http://proceso-urgencia.minsal.cl/CodeSystem/relacion-acompanante 5}">Vecino(a)</span></p><p><b>name</b>: Raúl Muñoz Valdebenito(Official)</p><p><b>telecom</b>: ph: 555-555-5555(Mobile)</p></div>
        </text>
        <patient>
          <reference value="urn:uuid:6ec6dc25-4b65-4165-a545-9b796f60b997"/>
        </patient>
        <relationship>
          <coding>
            <system value="http://proceso-urgencia.minsal.cl/CodeSystem/relacion-acompanante"/>
            <code value="5"/>
            <display value="Vecino(a)"/>
          </coding>
        </relationship>
        <name>
          <use value="official"/>
          <text value="Raúl Muñoz Valdebenito"/>
          <family value="Muñoz">
            <extension url="https://hl7chile.cl/fhir/ig/clcore/StructureDefinition/SegundoApellido">
              <valueString value="Valdebenito"/>
            </extension>
          </family>
          <given value="Raúl"/>
        </name>
        <telecom>
          <system value="phone"/>
          <value value="555-555-5555"/>
          <use value="mobile"/>
        </telecom>
      </RelatedPerson>
    </resource>
  </entry>
</Bundle>