<?xml version="1.0" encoding="UTF-8"?>

<Bundle xmlns="http://hl7.org/fhir">
  <id value="Ej1BundleAdmision"/>
  <meta>
    <profile value="https://interoperabilidad.minsal.cl/fhir/ig/urgencia/StructureDefinition/BundleAdmision"/>
  </meta>
  <type value="transaction"/>
  <entry>
    <fullUrl value="urn:uuid:e6745c30-76ee-4427-ae76-6ce72a14e1ea"/>
    <resource>
      <Patient>
        <id value="e6745c30-76ee-4427-ae76-6ce72a14e1ea"/>
        <meta>
          <profile value="https://interoperabilidad.minsal.cl/fhir/ig/urgencia/StructureDefinition/PatientUrg"/>
        </meta>
        <text>
          <status value="generated"/><div xmlns="http://www.w3.org/1999/xhtml"><a name="Patient_e6745c30-76ee-4427-ae76-6ce72a14e1ea"> </a><p class="res-header-id"><b>Generated Narrative: Patient e6745c30-76ee-4427-ae76-6ce72a14e1ea</b></p><a name="e6745c30-76ee-4427-ae76-6ce72a14e1ea"> </a><a name="hce6745c30-76ee-4427-ae76-6ce72a14e1ea"> </a><a name="e6745c30-76ee-4427-ae76-6ce72a14e1ea-es-CL"> </a><p style="border: 1px #661aff solid; background-color: #e6e6ff; padding: 10px;">Maria Josefína Perez Gonzalez(official) Female, DoB: 1974-12-25 ( Rol Único Nacional: 90000000-6 (use: official, ))</p><hr/><table class="grid"><tr><td style="background-color: #f3f5da" title="Record is active">Active:</td><td>true</td><td style="background-color: #f3f5da" title="Known status of Patient">Deceased:</td><td colspan="3">false</td></tr><tr><td style="background-color: #f3f5da" title="Ways to contact the Patient">Contact Detail</td><td colspan="3"><ul><li>ph: (562) 5555 6473(Work)</li><li>Calle Arrabal Conchita Tejeda Nº 24, Esc. 432(home)</li></ul></td></tr><tr><td style="background-color: #f3f5da" title="Pueblos Afrodescendiente"><a href="StructureDefinition-PueblosAfrodescendiente.html">Pueblos Afrodescendiente</a></td><td colspan="3">false</td></tr><tr><td style="background-color: #f3f5da" title="Esta extensión incluye códigos de paises"><a href="https://hl7chile.cl/fhir/ig/clcore/1.9.1/StructureDefinition-CodigoPaises.html">Codigo de Paises</a></td><td colspan="3"><span title="Codes:{https://hl7chile.cl/fhir/ig/clcore/CodeSystem/CodPais 152}">Chile</span></td></tr><tr><td style="background-color: #f3f5da" title="Pueblos Originarios Perteneciente"><a href="StructureDefinition-PueblosOriginariosPerteneciente.html">Pueblos Originarios Perteneciente</a></td><td colspan="3">true</td></tr><tr><td style="background-color: #f3f5da" title="País de origen del paciente"><a href="StructureDefinition-PaisOrigenMPI.html">País de origen del paciente</a></td><td colspan="3"><span title="Codes:{https://hl7chile.cl/fhir/ig/clcore/CodeSystem/CodPais 152}">Chile</span></td></tr><tr><td style="background-color: #f3f5da" title="Identidad De Genero"><a href="https://hl7chile.cl/fhir/ig/clcore/1.9.1/StructureDefinition-IdentidadDeGenero.html">Identidad De Genero</a></td><td colspan="3"><span title="Codes:{https://hl7chile.cl/fhir/ig/clcore/CodeSystem/CSIdentidaddeGenero 2}">Femenina</span></td></tr><tr><td style="background-color: #f3f5da" title="Almacenar si el paciente pertenece a algun pueblo originario"><a href="StructureDefinition-PueblosOriginarios.html">Pueblos Originarios</a></td><td colspan="3"><span title="Codes:{https://interoperabilidad.minsal.cl/fhir/ig/urgencia/CodeSystem/PueblosOriginariosCS 07}">Diaguita</span></td></tr></table></div>
        </text>
        <extension url="https://interoperabilidad.minsal.cl/fhir/ig/urgencia/StructureDefinition/PueblosOriginariosPerteneciente">
          <valueBoolean value="true"/>
        </extension>
        <extension url="https://interoperabilidad.minsal.cl/fhir/ig/urgencia/StructureDefinition/PueblosOriginarios">
          <valueCodeableConcept>
            <coding>
              <system value="https://interoperabilidad.minsal.cl/fhir/ig/urgencia/CodeSystem/PueblosOriginariosCS"/>
              <code value="07"/>
              <display value="Diaguita"/>
            </coding>
          </valueCodeableConcept>
        </extension>
        <extension url="https://interoperabilidad.minsal.cl/fhir/ig/urgencia/StructureDefinition/PueblosAfrodescendiente">
          <valueBoolean value="false"/>
        </extension>
        <extension url="https://hl7chile.cl/fhir/ig/clcore/StructureDefinition/IdentidadDeGenero">
          <valueCodeableConcept>
            <coding>
              <system value="https://hl7chile.cl/fhir/ig/clcore/CodeSystem/CSIdentidaddeGenero"/>
              <code value="2"/>
              <display value="Femenina"/>
            </coding>
          </valueCodeableConcept>
        </extension>
        <extension url="https://interoperabilidad.minsal.cl/fhir/ig/urgencia/StructureDefinition/PaisOrigenMPI">
          <valueCodeableConcept>
            <coding>
              <system value="https://hl7chile.cl/fhir/ig/clcore/CodeSystem/CodPais"/>
              <code value="152"/>
              <display value="Chile"/>
            </coding>
          </valueCodeableConcept>
        </extension>
        <extension url="https://hl7chile.cl/fhir/ig/clcore/StructureDefinition/CodigoPaises">
          <valueCodeableConcept>
            <coding>
              <system value="https://hl7chile.cl/fhir/ig/clcore/CodeSystem/CodPais"/>
              <code value="152"/>
              <display value="Chile"/>
            </coding>
          </valueCodeableConcept>
        </extension>
        <identifier>
          <use value="official"/>
          <type>
            <extension url="https://hl7chile.cl/fhir/ig/clcore/StructureDefinition/CodigoPaises">
              <valueCodeableConcept>
                <coding>
                  <system value="https://hl7chile.cl/fhir/ig/clcore/CodeSystem/CodPais"/>
                  <code value="152"/>
                  <display value="Chile"/>
                </coding>
              </valueCodeableConcept>
            </extension>
            <coding>
              <system value="https://hl7chile.cl/fhir/ig/clcore/CodeSystem/CSTipoIdentificador"/>
              <code value="01"/>
              <display value="RUN"/>
            </coding>
            <text value="Rol Único Nacional"/>
          </type>
          <value value="90000000-6"/>
          <assigner>
            <display value="Republica de Chile"/>
          </assigner>
        </identifier>
        <active value="true"/>
        <name>
          <use value="official"/>
          <text value="Maria Josefína Perez Gonzalez"/>
          <family value="Perez">
            <extension url="https://hl7chile.cl/fhir/ig/clcore/StructureDefinition/SegundoApellido">
              <valueString value="Gonzalez"/>
            </extension>
          </family>
          <given value="María"/>
          <given value="Josefina"/>
        </name>
        <telecom>
          <system value="phone"/>
          <value value="(562) 5555 6473"/>
          <use value="work"/>
          <rank value="1"/>
        </telecom>
        <gender value="female"/>
        <birthDate value="1974-12-25"/>
        <deceasedBoolean value="false"/>
        <address>
          <use value="home"/>
          <text value="Calle Arrabal Conchita Tejeda Nº 24, Esc. 432"/>
          <line value="Calle Arrabal Conchita Tejeda"/>
          <city value="Huara">
            <extension url="https://hl7chile.cl/fhir/ig/clcore/StructureDefinition/ComunasCl">
              <valueCodeableConcept>
                <coding>
                  <system value="https://hl7chile.cl/fhir/ig/clcore/CodeSystem/CSCodComunasCL"/>
                  <code value="01404"/>
                  <display value="Huara"/>
                </coding>
              </valueCodeableConcept>
            </extension>
          </city>
          <district value="Provincia del Tamarugal">
            <extension url="https://hl7chile.cl/fhir/ig/clcore/StructureDefinition/ProvinciasCl">
              <valueCodeableConcept>
                <coding>
                  <system value="https://hl7chile.cl/fhir/ig/clcore/CodeSystem/CSCodProvinciasCL"/>
                  <code value="014"/>
                  <display value="Tamarugal"/>
                </coding>
              </valueCodeableConcept>
            </extension>
          </district>
          <state value="Región de Tarapacá">
            <extension url="https://hl7chile.cl/fhir/ig/clcore/StructureDefinition/RegionesCl">
              <valueCodeableConcept>
                <coding>
                  <system value="https://hl7chile.cl/fhir/ig/clcore/CodeSystem/CSCodRegionCL"/>
                  <code value="01"/>
                  <display value="Tarapacá"/>
                </coding>
              </valueCodeableConcept>
            </extension>
          </state>
        </address>
      </Patient>
    </resource>
    <request>
      <method value="POST"/>
      <url value="Patient"/>
      <ifNoneExist value="identifier=90000000-6"/>
    </request>
  </entry>
  <entry>
    <fullUrl value="urn:uuid:d1391b7b-302a-49f8-a908-8116599e137e"/>
    <resource>
      <Encounter>
        <id value="d1391b7b-302a-49f8-a908-8116599e137e"/>
        <meta>
          <profile value="https://interoperabilidad.minsal.cl/fhir/ig/urgencia/StructureDefinition/EncounterUrg"/>
        </meta>
        <text>
          <status value="extensions"/><div xmlns="http://www.w3.org/1999/xhtml"><a name="Encounter_d1391b7b-302a-49f8-a908-8116599e137e"> </a><p class="res-header-id"><b>Generated Narrative: Encounter d1391b7b-302a-49f8-a908-8116599e137e</b></p><a name="d1391b7b-302a-49f8-a908-8116599e137e"> </a><a name="hcd1391b7b-302a-49f8-a908-8116599e137e"> </a><a name="d1391b7b-302a-49f8-a908-8116599e137e-es-CL"> </a><p><b>Previsión</b>: <span title="Codes:{https://interoperabilidad.minsal.cl/fhir/ig/urgencia/CodeSystem/Prevision 1}">FONASA</span></p><p><b>Acompañante</b>: false</p><p><b>identifier</b>: 126402-0025</p><p><b>status</b>: Arrived</p><p><b>class</b>: <a href="http://terminology.hl7.org/6.0.2/CodeSystem-v3-ActCode.html#v3-ActCode-EMER">ActCode EMER</a>: emergency</p><p><b>subject</b>: <a href="Bundle-Ej1BundleAdmision.html#urn-uuid-e6745c30-76ee-4427-ae76-6ce72a14e1ea">Bundle: type = transaction</a></p><h3>Participants</h3><table class="grid"><tr><td style="display: none">-</td><td><b>Type</b></td><td><b>Period</b></td><td><b>Individual</b></td></tr><tr><td style="display: none">*</td><td><span title="Codes:{http://terminology.hl7.org/CodeSystem/v3-ParticipationType ADM}">admitter</span></td><td>2024-10-25 13:18:00-0400 --&gt; (ongoing)</td><td><a href="Bundle-Ej1BundleAdmision.html#urn-uuid-b9f6967f-51b5-49f4-8576-ce9f588523c2">Bundle: type = transaction</a></td></tr></table><p><b>period</b>: 2024-10-25 13:18:00-0400 --&gt; (ongoing)</p><blockquote><p><b>hospitalization</b></p><p><b>Medio de Llegada</b>: <span title="Codes:{https://interoperabilidad.minsal.cl/fhir/ig/urgencia/CodeSystem/MedioDeLlegada 5}">Vehículo particular</span></p><p><b>Consulta por Accidente</b>: false</p><p><b>admitSource</b>: <span title="Codes:{https://interoperabilidad.minsal.cl/fhir/ig/urgencia/CodeSystem/Procedencia 9}">Domicilio</span></p></blockquote><p><b>serviceProvider</b>: <a href="Bundle-Ej1BundleAdmision.html#urn-uuid-dd61f312-b890-4986-b46a-a668d5615d39">Bundle: type = transaction</a></p></div>
        </text>
        <extension url="https://interoperabilidad.minsal.cl/fhir/ig/urgencia/StructureDefinition/Prevision">
          <valueCodeableConcept>
            <coding>
              <system value="https://interoperabilidad.minsal.cl/fhir/ig/urgencia/CodeSystem/Prevision"/>
              <code value="1"/>
              <display value="FONASA"/>
            </coding>
          </valueCodeableConcept>
        </extension>
        <extension url="https://interoperabilidad.minsal.cl/fhir/ig/urgencia/StructureDefinition/Acompanante">
          <valueBoolean value="false"/>
        </extension>
        <identifier>
          <value value="126402-0025"/>
        </identifier>
        <status value="arrived"/>
        <class>
          <system value="http://terminology.hl7.org/CodeSystem/v3-ActCode"/>
          <code value="EMER"/>
        </class>
        <subject>
          <reference value="urn:uuid:e6745c30-76ee-4427-ae76-6ce72a14e1ea"/>
        </subject>
        <participant>
          <type>
            <coding>
              <system value="http://terminology.hl7.org/CodeSystem/v3-ParticipationType"/>
              <code value="ADM"/>
            </coding>
          </type>
          <period>
            <start value="2024-10-25T13:18:00-04:00"/>
          </period>
          <individual>
            <reference value="urn:uuid:b9f6967f-51b5-49f4-8576-ce9f588523c2"/>
          </individual>
        </participant>
        <period>
          <start value="2024-10-25T13:18:00-04:00"/>
        </period>
        <hospitalization>
          <extension url="https://interoperabilidad.minsal.cl/fhir/ig/urgencia/StructureDefinition/MedioDeLlegada">
            <valueCodeableConcept>
              <coding>
                <system value="https://interoperabilidad.minsal.cl/fhir/ig/urgencia/CodeSystem/MedioDeLlegada"/>
                <code value="5"/>
                <display value="Vehículo particular"/>
              </coding>
            </valueCodeableConcept>
          </extension>
          <extension url="https://interoperabilidad.minsal.cl/fhir/ig/urgencia/StructureDefinition/ConsultaPorAccidente">
            <valueBoolean value="false"/>
          </extension>
          <admitSource>
            <coding>
              <system value="https://interoperabilidad.minsal.cl/fhir/ig/urgencia/CodeSystem/Procedencia"/>
              <code value="9"/>
              <display value="Domicilio"/>
            </coding>
          </admitSource>
        </hospitalization>
        <serviceProvider>
          <reference value="urn:uuid:dd61f312-b890-4986-b46a-a668d5615d39"/>
        </serviceProvider>
      </Encounter>
    </resource>
    <request>
      <method value="POST"/>
      <url value="Encounter"/>
    </request>
  </entry>
  <entry>
    <fullUrl value="urn:uuid:dd61f312-b890-4986-b46a-a668d5615d39"/>
    <resource>
      <Organization>
        <id value="dd61f312-b890-4986-b46a-a668d5615d39"/>
        <meta>
          <profile value="https://interoperabilidad.minsal.cl/fhir/ig/urgencia/StructureDefinition/EstablecimientoUrg"/>
        </meta>
        <text>
          <status value="extensions"/><div xmlns="http://www.w3.org/1999/xhtml"><a name="Organization_dd61f312-b890-4986-b46a-a668d5615d39"> </a><p class="res-header-id"><b>Generated Narrative: Organization dd61f312-b890-4986-b46a-a668d5615d39</b></p><a name="dd61f312-b890-4986-b46a-a668d5615d39"> </a><a name="hcdd61f312-b890-4986-b46a-a668d5615d39"> </a><a name="dd61f312-b890-4986-b46a-a668d5615d39-es-CL"> </a><p><b>Servicio de Salud</b>: <span title="Codes:{https://interoperabilidad.minsal.cl/fhir/ig/urgencia/CodeSystem/CSServicioDeSalud 26}">Servicio de Salud Magallanes</span></p><p><b>identifier</b>: 126402</p></div>
        </text>
        <extension url="https://interoperabilidad.minsal.cl/fhir/ig/urgencia/StructureDefinition/ServicioDeSalud">
          <valueCodeableConcept>
            <coding>
              <system value="https://interoperabilidad.minsal.cl/fhir/ig/urgencia/CodeSystem/CSServicioDeSalud"/>
              <code value="26"/>
              <display value="Servicio de Salud Magallanes"/>
            </coding>
          </valueCodeableConcept>
        </extension>
        <identifier>
          <value value="126402"/>
        </identifier>
      </Organization>
    </resource>
    <request>
      <method value="POST"/>
      <url value="Organization"/>
      <ifNoneExist value="identifier=126402"/>
    </request>
  </entry>
  <entry>
    <fullUrl value="urn:uuid:b9f6967f-51b5-49f4-8576-ce9f588523c2"/>
    <resource>
      <Practitioner>
        <id value="b9f6967f-51b5-49f4-8576-ce9f588523c2"/>
        <meta>
          <profile value="https://interoperabilidad.minsal.cl/fhir/ig/urgencia/StructureDefinition/PrestadorAdministrativo"/>
        </meta>
        <text>
          <status value="generated"/><div xmlns="http://www.w3.org/1999/xhtml"><a name="Practitioner_b9f6967f-51b5-49f4-8576-ce9f588523c2"> </a><p class="res-header-id"><b>Generated Narrative: Practitioner b9f6967f-51b5-49f4-8576-ce9f588523c2</b></p><a name="b9f6967f-51b5-49f4-8576-ce9f588523c2"> </a><a name="hcb9f6967f-51b5-49f4-8576-ce9f588523c2"> </a><a name="b9f6967f-51b5-49f4-8576-ce9f588523c2-es-CL"> </a><p><b>identifier</b>: RUN/12345678-9 (use: official, )</p><p><b>name</b>: Juan Carlos Gonzalez </p></div>
        </text>
        <identifier>
          <use value="official"/>
          <type>
            <coding>
              <system value="https://hl7chile.cl/fhir/ig/clcore/CodeSystem/CSTipoIdentificador"/>
              <code value="01"/>
              <display value="RUN"/>
            </coding>
          </type>
          <value value="12345678-9"/>
        </identifier>
        <name>
          <family value="Gonzalez">
            <extension url="https://hl7chile.cl/fhir/ig/clcore/StructureDefinition/SegundoApellido">
              <valueString value="Perez"/>
            </extension>
          </family>
          <given value="Juan"/>
          <given value="Carlos"/>
        </name>
      </Practitioner>
    </resource>
    <request>
      <method value="POST"/>
      <url value="Practitioner"/>
      <ifNoneExist value="identifier=12345678-9"/>
    </request>
  </entry>
</Bundle>