{
  "resourceType" : "Bundle",
  "id" : "EJ1BundleAddmission",
  "meta" : {
    "profile" : ["http://proceso-urgencia.minsal.cl/StructureDefinition/bundle-admision"]
  },
  "type" : "message",
  "timestamp" : "2024-05-05T00:00:00Z",
  "entry" : [{
    "fullUrl" : "urn:uuid:24843ad3-d657-463b-a137-33c38def43e5",
    "resource" : {
      "resourceType" : "MessageHeader",
      "id" : "24843ad3-d657-463b-a137-33c38def43e5",
      "meta" : {
        "profile" : ["http://proceso-urgencia.minsal.cl/StructureDefinition/message-header-urgencia"]
      },
      "text" : {
        "status" : "generated",
        "div" : "<div xmlns=\"http://www.w3.org/1999/xhtml\"><a name=\"MessageHeader_24843ad3-d657-463b-a137-33c38def43e5\"> </a><p class=\"res-header-id\"><b>Generated Narrative: MessageHeader 24843ad3-d657-463b-a137-33c38def43e5</b></p><a name=\"24843ad3-d657-463b-a137-33c38def43e5\"> </a><a name=\"hc24843ad3-d657-463b-a137-33c38def43e5\"> </a><a name=\"24843ad3-d657-463b-a137-33c38def43e5-en-US\"> </a><p><b>event</b>: <a href=\"CodeSystem-eventos-urgencia.html#eventos-urgencia-admision\">CSEventosUrgencia</a> admision: Admisión</p><h3>Destinations</h3><table class=\"grid\"><tr><td style=\"display: none\">-</td><td><b>Name</b></td><td><b>Endpoint</b></td></tr><tr><td style=\"display: none\">*</td><td>FHIR Server Ministerio de Salud</td><td><a href=\"https://fhir.minsal.cl\">https://fhir.minsal.cl</a></td></tr></table><p><b>sender</b>: <a href=\"Bundle-EJ1BundleAddmission.html#urn-uuid-5491b8d5-e06c-4f89-beb7-75a1989cdc81\">Bundle: type = message; timestamp = 2024-05-05 00:00:00+0000</a></p><h3>Sources</h3><table class=\"grid\"><tr><td style=\"display: none\">-</td><td><b>Name</b></td><td><b>Software</b></td><td><b>Endpoint</b></td></tr><tr><td style=\"display: none\">*</td><td>Hospital Clínico Metropolitano La Florida Dra. Eloísa Díaz Insunza</td><td>Sistema de Urgencia Electrónica</td><td><a href=\"https://fhir.hospitalflorida.cl\">https://fhir.hospitalflorida.cl</a></td></tr></table><p><b>focus</b>: </p><ul><li><a href=\"Bundle-EJ1BundleAddmission.html#urn-uuid-391d2365-379b-4b3a-b416-89ae62e2f501\">Bundle: type = message; timestamp = 2024-05-05 00:00:00+0000</a></li><li><a href=\"Bundle-EJ1BundleAddmission.html#urn-uuid-894bdb3a-8a18-44db-ab64-b13262a432cc\">Bundle: type = message; timestamp = 2024-05-05 00:00:00+0000</a></li></ul></div>"
      },
      "eventCoding" : {
        "system" : "http://proceso-urgencia.minsal.cl/CodeSystem/eventos-urgencia",
        "code" : "admision",
        "display" : "Admisión"
      },
      "destination" : [{
        "name" : "FHIR Server Ministerio de Salud",
        "endpoint" : "https://fhir.minsal.cl"
      }],
      "sender" : {
        "reference" : "urn:uuid:5491b8d5-e06c-4f89-beb7-75a1989cdc81"
      },
      "source" : {
        "name" : "Hospital Clínico Metropolitano La Florida Dra. Eloísa Díaz Insunza",
        "software" : "Sistema de Urgencia Electrónica",
        "endpoint" : "https://fhir.hospitalflorida.cl"
      },
      "focus" : [{
        "reference" : "urn:uuid:391d2365-379b-4b3a-b416-89ae62e2f501"
      },
      {
        "reference" : "urn:uuid:894bdb3a-8a18-44db-ab64-b13262a432cc"
      }]
    }
  },
  {
    "fullUrl" : "urn:uuid:894bdb3a-8a18-44db-ab64-b13262a432cc",
    "resource" : {
      "resourceType" : "EpisodeOfCare",
      "id" : "894bdb3a-8a18-44db-ab64-b13262a432cc",
      "meta" : {
        "profile" : ["http://proceso-urgencia.minsal.cl/StructureDefinition/episodio-urgencia"]
      },
      "text" : {
        "status" : "generated",
        "div" : "<div xmlns=\"http://www.w3.org/1999/xhtml\"><a name=\"EpisodeOfCare_894bdb3a-8a18-44db-ab64-b13262a432cc\"> </a><p class=\"res-header-id\"><b>Generated Narrative: EpisodeOfCare 894bdb3a-8a18-44db-ab64-b13262a432cc</b></p><a name=\"894bdb3a-8a18-44db-ab64-b13262a432cc\"> </a><a name=\"hc894bdb3a-8a18-44db-ab64-b13262a432cc\"> </a><a name=\"894bdb3a-8a18-44db-ab64-b13262a432cc-en-US\"> </a><p><b>identifier</b>: 123456-1</p><p><b>status</b>: Active</p><p><b>type</b>: <span title=\"Codes:{http://terminology.hl7.org/CodeSystem/v3-ActCode EMER}\">emergency</span></p><p><b>patient</b>: <a href=\"Bundle-EJ1BundleAddmission.html#urn-uuid-6ec6dc25-4b65-4165-a545-9b796f60b997\">Bundle: type = message; timestamp = 2024-05-05 00:00:00+0000</a></p><p><b>managingOrganization</b>: <a href=\"Bundle-EJ1BundleAddmission.html#urn-uuid-5491b8d5-e06c-4f89-beb7-75a1989cdc81\">Bundle: type = message; timestamp = 2024-05-05 00:00:00+0000</a></p><p><b>period</b>: 2024-05-04 12:00:00+0000 --&gt; (ongoing)</p></div>"
      },
      "identifier" : [{
        "value" : "123456-1"
      }],
      "status" : "active",
      "type" : [{
        "coding" : [{
          "system" : "http://terminology.hl7.org/CodeSystem/v3-ActCode",
          "code" : "EMER"
        }]
      }],
      "patient" : {
        "reference" : "urn:uuid:6ec6dc25-4b65-4165-a545-9b796f60b997"
      },
      "managingOrganization" : {
        "reference" : "urn:uuid:5491b8d5-e06c-4f89-beb7-75a1989cdc81"
      },
      "period" : {
        "start" : "2024-05-04T12:00:00Z"
      }
    }
  },
  {
    "fullUrl" : "urn:uuid:6ec6dc25-4b65-4165-a545-9b796f60b997",
    "resource" : {
      "resourceType" : "Patient",
      "id" : "6ec6dc25-4b65-4165-a545-9b796f60b997",
      "meta" : {
        "profile" : ["http://proceso-urgencia.minsal.cl/StructureDefinition/PacienteUrgencia"]
      },
      "text" : {
        "status" : "generated",
        "div" : "<div xmlns=\"http://www.w3.org/1999/xhtml\"><a name=\"Patient_6ec6dc25-4b65-4165-a545-9b796f60b997\"> </a><p class=\"res-header-id\"><b>Generated Narrative: Patient 6ec6dc25-4b65-4165-a545-9b796f60b997</b></p><a name=\"6ec6dc25-4b65-4165-a545-9b796f60b997\"> </a><a name=\"hc6ec6dc25-4b65-4165-a545-9b796f60b997\"> </a><a name=\"6ec6dc25-4b65-4165-a545-9b796f60b997-en-US\"> </a><p style=\"border: 1px #661aff solid; background-color: #e6e6ff; padding: 10px;\">Maria Josefína Perez Gonzalez(official) Female, DoB: 1974-12-25 ( Rol Único Nacional:\u00a090000000-6\u00a0(use:\u00a0official,\u00a0))</p><hr/><table class=\"grid\"><tr><td style=\"background-color: #f3f5da\" title=\"Record is active\">Active:</td><td>true</td><td style=\"background-color: #f3f5da\" title=\"Known status of Patient\">Deceased:</td><td colspan=\"3\">false</td></tr><tr><td style=\"background-color: #f3f5da\" title=\"Ways to contact the Patient\">Contact Detail</td><td colspan=\"3\"><ul><li>ph: (562) 5555 6473(Work)</li><li>Calle Arrabal Conchita Tejeda Nº 24, Esc. 432(home)</li></ul></td></tr><tr><td style=\"background-color: #f3f5da\" title=\"País de origen del paciente\"><a href=\"StructureDefinition-PaisOrigenMPI.html\">País de origen del paciente</a></td><td colspan=\"3\"><span title=\"Codes:{https://hl7chile.cl/fhir/ig/clcore/CodeSystem/CodPais 152}\">Chile</span></td></tr><tr><td style=\"background-color: #f3f5da\" title=\"Pueblos Originarios Perteneciente\"><a href=\"StructureDefinition-PueblosOriginariosPerteneciente.html\">Pueblos Originarios Perteneciente</a></td><td colspan=\"3\">true</td></tr><tr><td style=\"background-color: #f3f5da\" title=\"Pueblos Afrodescendiente\"><a href=\"StructureDefinition-PueblosAfrodescendiente.html\">Pueblos Afrodescendiente</a></td><td colspan=\"3\">false</td></tr><tr><td style=\"background-color: #f3f5da\" title=\"Esta extensión incluye códigos de paises\"><a href=\"https://build.fhir.org/ig/HL7Chile/clcore_ig/StructureDefinition-CodigoPaises.html\">Codigo de Paises</a></td><td colspan=\"3\"><span title=\"Codes:{https://hl7chile.cl/fhir/ig/clcore/CodeSystem/CodPais 152}\">Chile</span></td></tr><tr><td style=\"background-color: #f3f5da\" title=\"Almacenar si el paciente pertenece a algun pueblo originario\"><a href=\"StructureDefinition-PueblosOriginarios.html\">Pueblos Originarios</a></td><td colspan=\"3\"><span title=\"Codes:{http://proceso-urgencia.minsal.cl/CodeSystem/PueblosOriginariosCS 07}\">Diaguita</span></td></tr><tr><td style=\"background-color: #f3f5da\" title=\"Previsión de salud del paciente\"><a href=\"StructureDefinition-prevision.html\">Previsión</a></td><td colspan=\"3\"><a href=\"CodeSystem-prevision.html#prevision-1\">CSPrevision</a> 1: Fonasa</td></tr><tr><td style=\"background-color: #f3f5da\" title=\"Identidad De Genero\"><a href=\"https://build.fhir.org/ig/HL7Chile/clcore_ig/StructureDefinition-IdentidadDeGenero.html\">Identidad De Genero</a></td><td colspan=\"3\"><span title=\"Codes:{https://hl7chile.cl/fhir/ig/clcore/CodeSystem/CSIdentidaddeGenero 2}\">Femenina</span></td></tr></table></div>"
      },
      "extension" : [{
        "url" : "http://proceso-urgencia.minsal.cl/StructureDefinition/PueblosOriginariosPerteneciente",
        "valueBoolean" : true
      },
      {
        "url" : "http://proceso-urgencia.minsal.cl/StructureDefinition/PueblosOriginarios",
        "valueCodeableConcept" : {
          "coding" : [{
            "system" : "http://proceso-urgencia.minsal.cl/CodeSystem/PueblosOriginariosCS",
            "code" : "07",
            "display" : "Diaguita"
          }]
        }
      },
      {
        "url" : "http://proceso-urgencia.minsal.cl/StructureDefinition/PueblosAfrodescendiente",
        "valueBoolean" : false
      },
      {
        "url" : "http://proceso-urgencia.minsal.cl/StructureDefinition/prevision",
        "valueCoding" : {
          "system" : "http://proceso-urgencia.minsal.cl/CodeSystem/prevision",
          "code" : "1",
          "display" : "Fonasa"
        }
      },
      {
        "url" : "https://hl7chile.cl/fhir/ig/clcore/StructureDefinition/IdentidadDeGenero",
        "valueCodeableConcept" : {
          "coding" : [{
            "system" : "https://hl7chile.cl/fhir/ig/clcore/CodeSystem/CSIdentidaddeGenero",
            "code" : "2",
            "display" : "Femenina"
          }]
        }
      },
      {
        "url" : "http://proceso-urgencia.minsal.cl/StructureDefinition/PaisOrigenMPI",
        "valueCodeableConcept" : {
          "coding" : [{
            "system" : "https://hl7chile.cl/fhir/ig/clcore/CodeSystem/CodPais",
            "code" : "152",
            "display" : "Chile"
          }]
        }
      },
      {
        "url" : "https://hl7chile.cl/fhir/ig/clcore/StructureDefinition/CodigoPaises",
        "valueCodeableConcept" : {
          "coding" : [{
            "system" : "https://hl7chile.cl/fhir/ig/clcore/CodeSystem/CodPais",
            "code" : "152",
            "display" : "Chile"
          }]
        }
      }],
      "identifier" : [{
        "use" : "official",
        "type" : {
          "extension" : [{
            "url" : "https://hl7chile.cl/fhir/ig/clcore/StructureDefinition/CodigoPaises",
            "valueCodeableConcept" : {
              "coding" : [{
                "system" : "https://hl7chile.cl/fhir/ig/clcore/CodeSystem/CodPais",
                "code" : "152",
                "display" : "Chile"
              }]
            }
          }],
          "coding" : [{
            "system" : "https://hl7chile.cl/fhir/ig/clcore/CodeSystem/CSTipoIdentificador",
            "code" : "01",
            "display" : "RUN"
          }],
          "text" : "Rol Único Nacional"
        },
        "value" : "90000000-6",
        "assigner" : {
          "display" : "Republica de Chile"
        }
      }],
      "active" : true,
      "name" : [{
        "use" : "official",
        "text" : "Maria Josefína Perez Gonzalez",
        "family" : "Perez",
        "_family" : {
          "extension" : [{
            "url" : "https://hl7chile.cl/fhir/ig/clcore/StructureDefinition/SegundoApellido",
            "valueString" : "Gonzalez"
          }]
        },
        "given" : ["María",
        "Josefina"]
      }],
      "telecom" : [{
        "system" : "phone",
        "value" : "(562) 5555 6473",
        "use" : "work",
        "rank" : 1
      }],
      "gender" : "female",
      "birthDate" : "1974-12-25",
      "deceasedBoolean" : false,
      "address" : [{
        "use" : "home",
        "text" : "Calle Arrabal Conchita Tejeda Nº 24, Esc. 432",
        "line" : ["Calle Arrabal Conchita Tejeda"],
        "city" : "Huara",
        "_city" : {
          "extension" : [{
            "url" : "https://hl7chile.cl/fhir/ig/clcore/StructureDefinition/ComunasCl",
            "valueCodeableConcept" : {
              "coding" : [{
                "system" : "https://hl7chile.cl/fhir/ig/clcore/CodeSystem/CSCodComunasCL",
                "code" : "01404",
                "display" : "Huara"
              }]
            }
          }]
        },
        "district" : "Provincia del Tamarugal",
        "_district" : {
          "extension" : [{
            "url" : "https://hl7chile.cl/fhir/ig/clcore/StructureDefinition/ProvinciasCl",
            "valueCodeableConcept" : {
              "coding" : [{
                "system" : "https://hl7chile.cl/fhir/ig/clcore/CodeSystem/CSCodProvinciasCL",
                "code" : "014",
                "display" : "Tamarugal"
              }]
            }
          }]
        },
        "state" : "Región de Tarapacá",
        "_state" : {
          "extension" : [{
            "url" : "https://hl7chile.cl/fhir/ig/clcore/StructureDefinition/RegionesCl",
            "valueCodeableConcept" : {
              "coding" : [{
                "system" : "https://hl7chile.cl/fhir/ig/clcore/CodeSystem/CSCodRegionCL",
                "code" : "01",
                "display" : "Tarapacá"
              }]
            }
          }]
        }
      }]
    }
  },
  {
    "fullUrl" : "urn:uuid:391d2365-379b-4b3a-b416-89ae62e2f501",
    "resource" : {
      "resourceType" : "Encounter",
      "id" : "391d2365-379b-4b3a-b416-89ae62e2f501",
      "meta" : {
        "profile" : ["http://proceso-urgencia.minsal.cl/StructureDefinition/encounter-admision"]
      },
      "text" : {
        "status" : "generated",
        "div" : "<div xmlns=\"http://www.w3.org/1999/xhtml\"><a name=\"Encounter_391d2365-379b-4b3a-b416-89ae62e2f501\"> </a><p class=\"res-header-id\"><b>Generated Narrative: Encounter 391d2365-379b-4b3a-b416-89ae62e2f501</b></p><a name=\"391d2365-379b-4b3a-b416-89ae62e2f501\"> </a><a name=\"hc391d2365-379b-4b3a-b416-89ae62e2f501\"> </a><a name=\"391d2365-379b-4b3a-b416-89ae62e2f501-en-US\"> </a><p><b>status</b>: Finished</p><p><b>class</b>: <a href=\"http://terminology.hl7.org/6.0.2/CodeSystem-v3-ActCode.html#v3-ActCode-EMER\">ActCode</a> EMER: emergency</p><p><b>serviceType</b>: <span title=\"Codes:{http://proceso-urgencia.minsal.cl/CodeSystem/eventos-urgencia admision}\">Admisión</span></p><p><b>subject</b>: <a href=\"Bundle-EJ1BundleAddmission.html#urn-uuid-6ec6dc25-4b65-4165-a545-9b796f60b997\">Bundle: type = message; timestamp = 2024-05-05 00:00:00+0000</a></p><p><b>episodeOfCare</b>: <a href=\"Bundle-EJ1BundleAddmission.html#urn-uuid-894bdb3a-8a18-44db-ab64-b13262a432cc\">Bundle: type = message; timestamp = 2024-05-05 00:00:00+0000</a></p><h3>Participants</h3><table class=\"grid\"><tr><td style=\"display: none\">-</td><td><b>Type</b></td><td><b>Individual</b></td></tr><tr><td style=\"display: none\">*</td><td><span title=\"Codes:{http://proceso-urgencia.minsal.cl/CodeSystem/tipos-participante-encounter companion}\">Acompañante</span></td><td><a href=\"Bundle-EJ1BundleAddmission.html#urn-uuid-3cb8e117-fd2c-493f-b1e4-43bf1ae75bd7\">Bundle: type = message; timestamp = 2024-05-05 00:00:00+0000</a></td></tr></table><p><b>period</b>: 2024-05-04 12:00:00+0000 --&gt; (ongoing)</p><blockquote><p><b>hospitalization</b></p><p><b>admitSource</b>: <span title=\"Codes:{http://proceso-urgencia.minsal.cl/CodeSystem/medio-llegada 1}\">Ambulancia SAMU</span></p></blockquote><p><b>serviceProvider</b>: <a href=\"Bundle-EJ1BundleAddmission.html#urn-uuid-5491b8d5-e06c-4f89-beb7-75a1989cdc81\">Bundle: type = message; timestamp = 2024-05-05 00:00:00+0000</a></p></div>"
      },
      "status" : "finished",
      "class" : {
        "system" : "http://terminology.hl7.org/CodeSystem/v3-ActCode",
        "code" : "EMER"
      },
      "serviceType" : {
        "coding" : [{
          "system" : "http://proceso-urgencia.minsal.cl/CodeSystem/eventos-urgencia",
          "code" : "admision",
          "display" : "Admisión"
        }]
      },
      "subject" : {
        "reference" : "urn:uuid:6ec6dc25-4b65-4165-a545-9b796f60b997"
      },
      "episodeOfCare" : [{
        "reference" : "urn:uuid:894bdb3a-8a18-44db-ab64-b13262a432cc"
      }],
      "participant" : [{
        "type" : [{
          "coding" : [{
            "system" : "http://proceso-urgencia.minsal.cl/CodeSystem/tipos-participante-encounter",
            "code" : "companion",
            "display" : "Acompañante"
          }]
        }],
        "individual" : {
          "reference" : "urn:uuid:3cb8e117-fd2c-493f-b1e4-43bf1ae75bd7"
        }
      }],
      "period" : {
        "start" : "2024-05-04T12:00:00Z"
      },
      "hospitalization" : {
        "extension" : [{
          "url" : "http://proceso-urgencia.minsal.cl/StructureDefinition/procedencia",
          "valueCoding" : {
            "system" : "http://proceso-urgencia.minsal.cl/CodeSystem/codigo-procedencia",
            "code" : "9",
            "display" : "Domicilio"
          }
        },
        {
          "url" : "http://proceso-urgencia.minsal.cl/StructureDefinition/consulta-accidente",
          "valueBoolean" : false
        },
        {
          "url" : "http://proceso-urgencia.minsal.cl/StructureDefinition/ley-previsional",
          "valueCoding" : {
            "system" : "http://proceso-urgencia.minsal.cl/CodeSystem/ley-previsional",
            "code" : "96",
            "display" : "Ninguna"
          }
        }],
        "admitSource" : {
          "coding" : [{
            "system" : "http://proceso-urgencia.minsal.cl/CodeSystem/medio-llegada",
            "code" : "1",
            "display" : "Ambulancia SAMU"
          }]
        }
      },
      "serviceProvider" : {
        "reference" : "urn:uuid:5491b8d5-e06c-4f89-beb7-75a1989cdc81"
      }
    }
  },
  {
    "fullUrl" : "urn:uuid:5491b8d5-e06c-4f89-beb7-75a1989cdc81",
    "resource" : {
      "resourceType" : "Organization",
      "id" : "5491b8d5-e06c-4f89-beb7-75a1989cdc81",
      "meta" : {
        "profile" : ["http://proceso-urgencia.minsal.cl/StructureDefinition/organizacion-establecimiento"]
      },
      "text" : {
        "status" : "generated",
        "div" : "<div xmlns=\"http://www.w3.org/1999/xhtml\"><a name=\"Organization_5491b8d5-e06c-4f89-beb7-75a1989cdc81\"> </a><p class=\"res-header-id\"><b>Generated Narrative: Organization 5491b8d5-e06c-4f89-beb7-75a1989cdc81</b></p><a name=\"5491b8d5-e06c-4f89-beb7-75a1989cdc81\"> </a><a name=\"hc5491b8d5-e06c-4f89-beb7-75a1989cdc81\"> </a><a name=\"5491b8d5-e06c-4f89-beb7-75a1989cdc81-en-US\"> </a><p><b>identifier</b>: <code>http://deis.minsal.cl/establecimientos</code>/114105</p><p><b>active</b>: true</p><p><b>name</b>: Hospital Clínico Metropolitano La Florida Dra. Eloísa Díaz Insunza</p></div>"
      },
      "extension" : [{
        "url" : "http://proceso-urgencia.minsal.cl/StructureDefinition/servicio-salud",
        "valueCoding" : {
          "system" : "http://proceso-urgencia.minsal.cl/CodeSystem/servicio-salud",
          "code" : "14",
          "display" : "Servicio de Salud Metropolitano Sur Oriente"
        }
      }],
      "identifier" : [{
        "system" : "http://deis.minsal.cl/establecimientos",
        "value" : "114105"
      }],
      "active" : true,
      "name" : "Hospital Clínico Metropolitano La Florida Dra. Eloísa Díaz Insunza"
    }
  },
  {
    "fullUrl" : "urn:uuid:3cb8e117-fd2c-493f-b1e4-43bf1ae75bd7",
    "resource" : {
      "resourceType" : "RelatedPerson",
      "id" : "3cb8e117-fd2c-493f-b1e4-43bf1ae75bd7",
      "meta" : {
        "profile" : ["http://proceso-urgencia.minsal.cl/StructureDefinition/acompanante-urgencia"]
      },
      "text" : {
        "status" : "generated",
        "div" : "<div xmlns=\"http://www.w3.org/1999/xhtml\"><a name=\"RelatedPerson_3cb8e117-fd2c-493f-b1e4-43bf1ae75bd7\"> </a><p class=\"res-header-id\"><b>Generated Narrative: RelatedPerson 3cb8e117-fd2c-493f-b1e4-43bf1ae75bd7</b></p><a name=\"3cb8e117-fd2c-493f-b1e4-43bf1ae75bd7\"> </a><a name=\"hc3cb8e117-fd2c-493f-b1e4-43bf1ae75bd7\"> </a><a name=\"3cb8e117-fd2c-493f-b1e4-43bf1ae75bd7-en-US\"> </a><p><b>patient</b>: <a href=\"Bundle-EJ1BundleAddmission.html#urn-uuid-6ec6dc25-4b65-4165-a545-9b796f60b997\">Bundle: type = message; timestamp = 2024-05-05 00:00:00+0000</a></p><p><b>relationship</b>: <span title=\"Codes:{http://proceso-urgencia.minsal.cl/CodeSystem/relacion-acompanante 5}\">Vecino(a)</span></p><p><b>name</b>: Raúl Muñoz Valdebenito(Official)</p><p><b>telecom</b>: ph: 555-555-5555(Mobile)</p></div>"
      },
      "patient" : {
        "reference" : "urn:uuid:6ec6dc25-4b65-4165-a545-9b796f60b997"
      },
      "relationship" : [{
        "coding" : [{
          "system" : "http://proceso-urgencia.minsal.cl/CodeSystem/relacion-acompanante",
          "code" : "5",
          "display" : "Vecino(a)"
        }]
      }],
      "name" : [{
        "use" : "official",
        "text" : "Raúl Muñoz Valdebenito",
        "family" : "Muñoz",
        "_family" : {
          "extension" : [{
            "url" : "https://hl7chile.cl/fhir/ig/clcore/StructureDefinition/SegundoApellido",
            "valueString" : "Valdebenito"
          }]
        },
        "given" : ["Raúl"]
      }],
      "telecom" : [{
        "system" : "phone",
        "value" : "555-555-5555",
        "use" : "mobile"
      }]
    }
  }]
}