<?xml version="1.0" encoding="UTF-8"?>

<Bundle xmlns="http://hl7.org/fhir">
  <id value="r2bo-generar-informe-bundle-ejemplo"/>
  <meta>
    <profile value="https://interoperabilidad.minsal.cl/fhir/ig/r2bo/StructureDefinition/r2bo-bundle-generar-informe"/>
  </meta>
  <type value="transaction"/>
  <entry>
    <fullUrl value="https://interoperabilidad.minsal.cl/fhir/ig/r2bo/ServiceRequest/r2bo-solicitud-informe-apa-ej"/>
    <resource>
      <ServiceRequest>
        <id value="r2bo-solicitud-informe-apa-ej"/>
        <meta>
          <versionId value="2"/>
          <profile value="https://interoperabilidad.minsal.cl/fhir/ig/r2bo/StructureDefinition/r2bo-solicitud-informe-apa"/>
        </meta>
        <text>
          <status value="generated"/><div xmlns="http://www.w3.org/1999/xhtml"><a name="ServiceRequest_r2bo-solicitud-informe-apa-ej"> </a><p class="res-header-id"><b>Generated Narrative: ServiceRequest r2bo-solicitud-informe-apa-ej</b></p><a name="r2bo-solicitud-informe-apa-ej"> </a><a name="hcr2bo-solicitud-informe-apa-ej"> </a><div style="display: inline-block; background-color: #d9e0e7; padding: 6px; margin: 4px; border: 1px solid #8da1b4; border-radius: 5px; line-height: 60%"><p style="margin-bottom: 0px">version: 2</p><p style="margin-bottom: 0px">Profile: <a href="StructureDefinition-r2bo-solicitud-informe-apa.html">Perfil de Solicitud de Informe de Anatomía Patológica</a></p></div><p><b>identifier</b>: 111111101</p><p><b>status</b>: Completed</p><p><b>intent</b>: Order</p><p><b>priority</b>: Routine</p><p><b>code</b>: <span title="Codes:{http://snomed.info/sct 116784002}">Informe de Biopsia</span></p><p><b>subject</b>: <a href="Patient-paciente-requiere-examen.html">Javiera Castilla (official) Female, DoB: 1995-12-12 ( PPN: ACL123456789876 (use: official, ))</a></p><p><b>requester</b>: <a href="PractitionerRole-ProfesionalHospital.html">PractitionerRole MÉDICO CIRUJANO</a></p><p><b>performer</b>: <a href="Organization-hospital-collector.html">Organization Hospital Dr. Hernán Henríquez Aravena (Temuco)</a></p><p><b>locationCode</b>: <span title="Codes:{http://terminology.hl7.org/CodeSystem/v3-RoleCode HLAB}">hospital laboratory</span></p><p><b>reasonCode</b>: <span title="Codes:{http://snomed.info/sct 269497004}, {http://hl7.org/fhir/sid/icd-10 D48.6}">Neoplasm of uncertain behaviour of breast</span></p><p><b>specimen</b>: <a href="Specimen-r2bo-specimen-example.html">Specimen: identifier = 110101101; status = available; type = Tissue; receivedTime = 2021-06-01 00:00:00+0000; note = Resección completa de tejido mamario, posible carcinoma</a></p></div>
        </text>
        <identifier>
          <value value="111111101"/>
        </identifier>
        <status value="completed"/>
        <intent value="order"/>
        <priority value="routine"/>
        <code>
          <coding>
            <system value="http://snomed.info/sct"/>
            <code value="116784002"/>
          </coding>
          <text value="Informe de Biopsia"/>
        </code>
        <subject>
          <reference value="Patient/paciente-requiere-examen"/>
        </subject>
        <requester>
          <reference value="PractitionerRole/ProfesionalHospital"/>
        </requester>
        <performer>
          <reference value="Organization/hospital-collector"/>
        </performer>
        <locationCode>
          <coding>
            <system value="http://terminology.hl7.org/CodeSystem/v3-RoleCode"/>
            <code value="HLAB"/>
            <display value="hospital laboratory"/>
          </coding>
        </locationCode>
        <reasonCode>
          <coding>
            <system value="http://snomed.info/sct"/>
            <code value="269497004"/>
          </coding>
          <coding>
            <system value="http://hl7.org/fhir/sid/icd-10"/>
            <version value="2019-covid-expanded"/>
            <code value="D48.6"/>
          </coding>
        </reasonCode>
        <specimen>
          <reference value="Specimen/r2bo-specimen-example"/>
        </specimen>
      </ServiceRequest>
    </resource>
    <request>
      <method value="PUT"/>
      <url value="ServiceRequest?identifier=111111101"/>
    </request>
  </entry>
  <entry>
    <fullUrl value="https://interoperabilidad.minsal.cl/fhir/ig/r2bo/Patient/paciente-requiere-examen"/>
    <resource>
      <Patient>
        <id value="paciente-requiere-examen"/>
        <meta>
          <profile value="https://interoperabilidad.minsal.cl/fhir/ig/nid/StructureDefinition/MINSALPaciente"/>
        </meta>
        <text>
          <status value="generated"/><div xmlns="http://www.w3.org/1999/xhtml"><a name="Patient_paciente-requiere-examen"> </a><p class="res-header-id"><b>Generated Narrative: Patient paciente-requiere-examen</b></p><a name="paciente-requiere-examen"> </a><a name="hcpaciente-requiere-examen"> </a><div style="display: inline-block; background-color: #d9e0e7; padding: 6px; margin: 4px; border: 1px solid #8da1b4; border-radius: 5px; line-height: 60%"><p style="margin-bottom: 0px"/><p style="margin-bottom: 0px">Profile: <a href="https://interoperabilidad.minsal.cl/fhir/ig/nid/0.4.9/StructureDefinition-MINSALPaciente.html">MINSAL Paciente</a></p></div><p style="border: 1px #661aff solid; background-color: #e6e6ff; padding: 10px;">Javiera Castilla (official) Female, DoB: 1995-12-12 ( PPN: ACL123456789876 (use: official, ))</p><hr/><table class="grid"><tr><td style="background-color: #f3f5da" title="Record is active">Active:</td><td>true</td><td style="background-color: #f3f5da" title="Known status of Patient">Deceased:</td><td>false</td></tr><tr><td style="background-color: #f3f5da" title="Known Marital status of Patient">Marital Status:</td><td colspan="3"><span title="Codes:{https://interoperabilidad.minsal.cl/fhir/ig/nid/CodeSystem/CSEstadoCivil 01}">Soltero(a)</span></td></tr><tr><td style="background-color: #f3f5da" title="Other Id (see the one above)">Other Id:</td><td colspan="3">RUN/16182522-0 (use: official, )</td></tr><tr><td style="background-color: #f3f5da" title="Ways to contact the Patient">Contact Detail</td><td colspan="3"><ul><li><a href="tel:+56912387678">+56912387678</a></li><li>Avenida Las Torres 3456, Departamento 702 null null null (home)</li></ul></td></tr><tr><td style="background-color: #f3f5da" title="Sexo Biologico del paciente"><a href="https://hl7chile.cl/fhir/ig/clcore/1.9.4/StructureDefinition-SexoBiologico.html">Sexo Biologico del paciente</a></td><td colspan="3"><span title="Codes:{http://hl7.org/fhir/administrative-gender female}">Femenina</span></td></tr><tr><td style="background-color: #f3f5da" title="País de origen del paciente"><a href="https://interoperabilidad.minsal.cl/fhir/ig/nid/0.4.9/StructureDefinition-PaisOrigenMPI.html">País de origen del paciente</a></td><td colspan="3"><span title="Codes:{urn:iso:std:iso:3166 858}">Uruguay</span></td></tr><tr><td style="background-color: #f3f5da" title="Extensión para describir si el paciente pertenece algún pueblo originario">Pueblos Originarios:</td><td colspan="3"><ul><li>pertenece: false</li></ul></td></tr><tr><td style="background-color: #f3f5da" title="Esta extensión incluye códigos de países"><a href="https://hl7chile.cl/fhir/ig/clcore/1.9.4/StructureDefinition-CodigoPaises.html">Código de Países</a></td><td colspan="3"><span title="Codes:{urn:iso:std:iso:3166 152}">Chile</span></td></tr><tr><td style="background-color: #f3f5da" title="Religión"><a href="https://interoperabilidad.minsal.cl/fhir/ig/nid/0.4.9/StructureDefinition-Religion.html">Religión</a></td><td colspan="3"><span title="Codes:{https://interoperabilidad.minsal.cl/fhir/ig/nid/CodeSystem/CSReligion 9}">Ninguna, ateo, agnóstico</span></td></tr><tr><td style="background-color: #f3f5da" title="Identidad De Género"><a href="https://hl7chile.cl/fhir/ig/clcore/1.9.4/StructureDefinition-IdentidadDeGenero.html">Identidad De Género</a></td><td colspan="3"><span title="Codes:{https://hl7chile.cl/fhir/ig/clcore/CodeSystem/CSIdentidaddeGenero 2}">Femenina</span></td></tr><tr><td style="background-color: #f3f5da" title="Pueblos Afrodescendiente"><a href="https://interoperabilidad.minsal.cl/fhir/ig/nid/0.4.9/StructureDefinition-PueblosAfrodescendiente.html">Pueblos Afrodescendiente</a></td><td colspan="3">false</td></tr></table></div>
        </text>
        <extension url="https://hl7chile.cl/fhir/ig/clcore/StructureDefinition/IdentidadDeGenero">
          <valueCodeableConcept>
            <coding>
              <system value="https://hl7chile.cl/fhir/ig/clcore/CodeSystem/CSIdentidaddeGenero"/>
              <code value="2"/>
              <display value="Femenina"/>
            </coding>
          </valueCodeableConcept>
        </extension>
        <extension url="https://hl7chile.cl/fhir/ig/clcore/StructureDefinition/SexoBiologico">
          <valueCodeableConcept>
            <coding>
              <system value="http://hl7.org/fhir/administrative-gender"/>
              <code value="female"/>
              <display value="Female"/>
            </coding>
            <text value="Femenina"/>
          </valueCodeableConcept>
        </extension>
        <extension url="https://hl7chile.cl/fhir/ig/clcore/StructureDefinition/CodigoPaises">
          <valueCodeableConcept>
            <coding>
              <system value="urn:iso:std:iso:3166"/>
              <code value="152"/>
              <display value="Chile"/>
            </coding>
          </valueCodeableConcept>
        </extension>
        <extension url="https://interoperabilidad.minsal.cl/fhir/ig/nid/StructureDefinition/PaisOrigenMPI">
          <valueCodeableConcept>
            <coding>
              <system value="urn:iso:std:iso:3166"/>
              <code value="858"/>
              <display value="Uruguay"/>
            </coding>
          </valueCodeableConcept>
        </extension>
        <extension url="https://interoperabilidad.minsal.cl/fhir/ig/nid/StructureDefinition/Religion">
          <valueCodeableConcept>
            <coding>
              <system value="https://interoperabilidad.minsal.cl/fhir/ig/nid/CodeSystem/CSReligion"/>
              <code value="9"/>
              <display value="Ninguna, ateo, agnóstico"/>
            </coding>
          </valueCodeableConcept>
        </extension>
        <extension url="https://interoperabilidad.minsal.cl/fhir/ig/nid/StructureDefinition/PueblosAfrodescendiente">
          <valueBoolean value="false"/>
        </extension>
        <extension url="https://interoperabilidad.minsal.cl/fhir/ig/nid/StructureDefinition/PueblosOriginariosMPI">
          <extension url="pertenece">
            <valueBoolean value="false"/>
          </extension>
        </extension>
        <identifier>
          <use value="official"/>
          <type>
            <extension url="https://hl7chile.cl/fhir/ig/clcore/StructureDefinition/CodigoPaises">
              <valueCodeableConcept>
                <coding>
                  <system value="urn:iso:std:iso:3166"/>
                  <code value="152"/>
                  <display value="Chile"/>
                </coding>
              </valueCodeableConcept>
            </extension>
            <coding>
              <system value="https://interoperabilidad.minsal.cl/fhir/ig/nid/CodeSystem/CSTipoIdentificador"/>
              <code value="1"/>
              <display value="RUN"/>
            </coding>
          </type>
          <system value="urn:oid:2.16.840.1.113883.2.22.1.152.787300"/>
          <value value="16182522-0"/>
        </identifier>
        <identifier>
          <use value="official"/>
          <type>
            <extension url="https://hl7chile.cl/fhir/ig/clcore/StructureDefinition/CodigoPaises">
              <valueCodeableConcept>
                <coding>
                  <system value="urn:iso:std:iso:3166"/>
                  <code value="152"/>
                  <display value="Chile"/>
                </coding>
              </valueCodeableConcept>
            </extension>
            <coding>
              <system value="https://interoperabilidad.minsal.cl/fhir/ig/nid/CodeSystem/CSTipoIdentificador"/>
              <code value="5"/>
              <display value="PPN"/>
            </coding>
          </type>
          <system value="urn:oid:2.16.840.1.113883.2.22.0.2.102100.50.10"/>
          <value value="ACL123456789876"/>
        </identifier>
        <active value="true"/>
        <name>
          <use value="official"/>
          <family value="Castilla">
            <extension url="https://hl7chile.cl/fhir/ig/clcore/StructureDefinition/SegundoApellido">
              <valueString value="Muñoz"/>
            </extension>
          </family>
          <given value="Javiera"/>
        </name>
        <telecom>
          <system value="phone"/>
          <value value="+56912387678"/>
          <use value="mobile"/>
        </telecom>
        <gender value="female"/>
        <birthDate value="1995-12-12"/>
        <deceasedBoolean value="false"/>
        <address>
          <extension url="http://hl7.org/fhir/StructureDefinition/geolocation">
            <extension url="latitude">
              <valueDecimal value="-33.4265"/>
            </extension>
            <extension url="longitude">
              <valueDecimal value="-70.56652"/>
            </extension>
          </extension>
          <extension url="https://interoperabilidad.minsal.cl/fhir/ig/nid/StructureDefinition/SituacionCalle">
            <valueBoolean value="false"/>
          </extension>
          <use value="home"/>
          <line value="Avenida Las Torres 3456, Departamento 702"/>
          <city>
            <extension url="https://hl7chile.cl/fhir/ig/clcore/StructureDefinition/ComunasCl">
              <valueCodeableConcept>
                <coding>
                  <system value="https://hl7chile.cl/fhir/ig/clcore/CodeSystem/CSCodComunasCL"/>
                  <code value="13118"/>
                  <display value="Macul"/>
                </coding>
              </valueCodeableConcept>
            </extension>
          </city>
          <district>
            <extension url="https://hl7chile.cl/fhir/ig/clcore/StructureDefinition/ProvinciasCl">
              <valueCodeableConcept>
                <coding>
                  <system value="https://hl7chile.cl/fhir/ig/clcore/CodeSystem/CSCodProvinciasCL"/>
                  <code value="131"/>
                  <display value="Santiago"/>
                </coding>
              </valueCodeableConcept>
            </extension>
          </district>
          <state>
            <extension url="https://hl7chile.cl/fhir/ig/clcore/StructureDefinition/RegionesCl">
              <valueCodeableConcept>
                <coding>
                  <system value="https://hl7chile.cl/fhir/ig/clcore/CodeSystem/CSCodRegionCL"/>
                  <code value="13"/>
                  <display value="Metropolitana de Santiago"/>
                </coding>
              </valueCodeableConcept>
            </extension>
          </state>
          <country>
            <extension url="https://hl7chile.cl/fhir/ig/clcore/StructureDefinition/CodigoPaises">
              <valueCodeableConcept>
                <coding>
                  <system value="urn:iso:std:iso:3166"/>
                  <code value="152"/>
                  <display value="Chile"/>
                </coding>
              </valueCodeableConcept>
            </extension>
          </country>
        </address>
        <maritalStatus>
          <coding>
            <system value="https://interoperabilidad.minsal.cl/fhir/ig/nid/CodeSystem/CSEstadoCivil"/>
            <code value="01"/>
            <display value="Soltero(a)"/>
          </coding>
        </maritalStatus>
      </Patient>
    </resource>
    <request>
      <method value="POST"/>
      <url value="Patient"/>
      <ifNoneExist value="Patient?identifier=16182522-0"/>
    </request>
  </entry>
  <entry>
    <fullUrl value="https://interoperabilidad.minsal.cl/fhir/ig/r2bo/PractitionerRole/ProfesionalHospital"/>
    <resource>
      <PractitionerRole>
        <id value="ProfesionalHospital"/>
        <meta>
          <profile value="https://interoperabilidad.minsal.cl/fhir/ig/r2bo/StructureDefinition/r2bo-rol-profesional-minsal"/>
        </meta>
        <text>
          <status value="generated"/><div xmlns="http://www.w3.org/1999/xhtml"><a name="PractitionerRole_ProfesionalHospital"> </a><p class="res-header-id"><b>Generated Narrative: PractitionerRole ProfesionalHospital</b></p><a name="ProfesionalHospital"> </a><a name="hcProfesionalHospital"> </a><div style="display: inline-block; background-color: #d9e0e7; padding: 6px; margin: 4px; border: 1px solid #8da1b4; border-radius: 5px; line-height: 60%"><p style="margin-bottom: 0px"/><p style="margin-bottom: 0px">Profile: <a href="StructureDefinition-r2bo-rol-profesional-minsal.html">Perfil de Rol Profesional</a></p></div><p><b>practitioner</b>: <a href="Practitioner-profesional-hospital-collector.html">Practitioner Juan Perez </a></p><p><b>organization</b>: <a href="Organization-hospital-collector.html">Organization Hospital Dr. Hernán Henríquez Aravena (Temuco)</a></p><p><b>code</b>: <span title="Codes:{https://interoperabilidad.minsal.cl/fhir/ig/nid/CodeSystem/CSTituloProfesional 1}">MÉDICO CIRUJANO</span></p><p><b>location</b>: <a href="Location-r2bo-localizacion-MedicinaGeneral.html">Location Medicina General</a></p></div>
        </text>
        <practitioner>
          <reference value="Practitioner/profesional-hospital-collector"/>
        </practitioner>
        <organization>
          <reference value="Organization/hospital-collector"/>
        </organization>
        <code>
          <coding>
            <system value="https://interoperabilidad.minsal.cl/fhir/ig/nid/CodeSystem/CSTituloProfesional"/>
            <code value="1"/>
            <display value="MÉDICO CIRUJANO"/>
          </coding>
        </code>
        <location>
          <reference value="Location/r2bo-localizacion-MedicinaGeneral"/>
        </location>
      </PractitionerRole>
    </resource>
    <request>
      <method value="POST"/>
      <url value="PractitionerRole"/>
      <ifNoneExist value="PractitionerRole?practitioner.identifier=5135329-3&amp;organization.identifier=121109"/>
    </request>
  </entry>
  <entry>
    <fullUrl value="https://interoperabilidad.minsal.cl/fhir/ig/r2bo/PractitionerRole/r2bo-anatopatologo-hospital"/>
    <resource>
      <PractitionerRole>
        <id value="r2bo-anatopatologo-hospital"/>
        <meta>
          <profile value="https://interoperabilidad.minsal.cl/fhir/ig/r2bo/StructureDefinition/r2bo-rol-profesional-minsal"/>
        </meta>
        <text>
          <status value="generated"/><div xmlns="http://www.w3.org/1999/xhtml"><a name="PractitionerRole_r2bo-anatopatologo-hospital"> </a><p class="res-header-id"><b>Generated Narrative: PractitionerRole r2bo-anatopatologo-hospital</b></p><a name="r2bo-anatopatologo-hospital"> </a><a name="hcr2bo-anatopatologo-hospital"> </a><div style="display: inline-block; background-color: #d9e0e7; padding: 6px; margin: 4px; border: 1px solid #8da1b4; border-radius: 5px; line-height: 60%"><p style="margin-bottom: 0px"/><p style="margin-bottom: 0px">Profile: <a href="StructureDefinition-r2bo-rol-profesional-minsal.html">Perfil de Rol Profesional</a></p></div><p><b>practitioner</b>: <a href="Practitioner-profesional-hospital-anatopatologo.html">Practitioner Patricia Gutierrez </a></p><p><b>organization</b>: <a href="Organization-hospital-collector.html">Organization Hospital Dr. Hernán Henríquez Aravena (Temuco)</a></p><p><b>code</b>: <span title="Codes:{https://interoperabilidad.minsal.cl/fhir/ig/nid/CodeSystem/CSTituloProfesional 1}">MÉDICO CIRUJANO</span></p><p><b>specialty</b>: <span title="Codes:{https://interoperabilidad.minsal.cl/fhir/ig/nid/CodeSystem/CSEspecialidadMed 1}">ANATOMÍA PATOLÓGICA</span></p></div>
        </text>
        <practitioner>
          <reference value="Practitioner/profesional-hospital-anatopatologo"/>
        </practitioner>
        <organization>
          <reference value="Organization/hospital-collector"/>
        </organization>
        <code>
          <coding>
            <system value="https://interoperabilidad.minsal.cl/fhir/ig/nid/CodeSystem/CSTituloProfesional"/>
            <code value="1"/>
            <display value="MÉDICO CIRUJANO"/>
          </coding>
        </code>
        <specialty>
          <coding>
            <system value="https://interoperabilidad.minsal.cl/fhir/ig/nid/CodeSystem/CSEspecialidadMed"/>
            <code value="1"/>
            <display value="ANATOMÍA PATOLÓGICA"/>
          </coding>
        </specialty>
      </PractitionerRole>
    </resource>
    <request>
      <method value="POST"/>
      <url value="PractitionerRole"/>
      <ifNoneExist value="PractitionerRole?practitioner.identifier=19283789-2&amp;organization.identifier=121109"/>
    </request>
  </entry>
  <entry>
    <fullUrl value="https://interoperabilidad.minsal.cl/fhir/ig/r2bo/Location/r2bo-localizacion-MedicinaGeneral"/>
    <resource>
      <Location>
        <id value="r2bo-localizacion-MedicinaGeneral"/>
        <meta>
          <profile value="https://interoperabilidad.minsal.cl/fhir/ig/r2bo/StructureDefinition/r2bo-servicio-solicitante"/>
        </meta>
        <text>
          <status value="generated"/><div xmlns="http://www.w3.org/1999/xhtml"><a name="Location_r2bo-localizacion-MedicinaGeneral"> </a><p class="res-header-id"><b>Generated Narrative: Location r2bo-localizacion-MedicinaGeneral</b></p><a name="r2bo-localizacion-MedicinaGeneral"> </a><a name="hcr2bo-localizacion-MedicinaGeneral"> </a><div style="display: inline-block; background-color: #d9e0e7; padding: 6px; margin: 4px; border: 1px solid #8da1b4; border-radius: 5px; line-height: 60%"><p style="margin-bottom: 0px"/><p style="margin-bottom: 0px">Profile: <a href="StructureDefinition-r2bo-servicio-solicitante.html">Servicio Solicitante del Informe</a></p></div><p><b>name</b>: Medicina General</p></div>
        </text>
        <name value="Medicina General"/>
      </Location>
    </resource>
    <request>
      <method value="POST"/>
      <url value="Location"/>
      <ifNoneExist value="Location?name=Medicina%20General"/>
    </request>
  </entry>
  <entry>
    <fullUrl value="https://interoperabilidad.minsal.cl/fhir/ig/r2bo/Practitioner/profesional-hospital-collector"/>
    <resource>
      <Practitioner>
        <id value="profesional-hospital-collector"/>
        <meta>
          <profile value="https://interoperabilidad.minsal.cl/fhir/ig/nid/StructureDefinition/MINSALPrestadorProfesional"/>
        </meta>
        <text>
          <status value="generated"/><div xmlns="http://www.w3.org/1999/xhtml"><a name="Practitioner_profesional-hospital-collector"> </a><p class="res-header-id"><b>Generated Narrative: Practitioner profesional-hospital-collector</b></p><a name="profesional-hospital-collector"> </a><a name="hcprofesional-hospital-collector"> </a><div style="display: inline-block; background-color: #d9e0e7; padding: 6px; margin: 4px; border: 1px solid #8da1b4; border-radius: 5px; line-height: 60%"><p style="margin-bottom: 0px"/><p style="margin-bottom: 0px">Profile: <a href="https://interoperabilidad.minsal.cl/fhir/ig/nid/0.4.9/StructureDefinition-MINSALPrestadorProfesional.html">Prestador Profesional</a></p></div><p><b>identifier</b>: RUN/5135329-3 (use: official, )</p><p><b>name</b>: Juan Perez </p><p><b>birthDate</b>: 1991-05-18</p><h3>Qualifications</h3><table class="grid"><tr><td style="display: none">-</td><td><b>Identifier</b></td><td><b>Code</b></td></tr><tr><td style="display: none">*</td><td>cert</td><td><span title="Codes:{https://interoperabilidad.minsal.cl/fhir/ig/nid/CodeSystem/CSTituloProfesional 1}">MÉDICO CIRUJANO</span></td></tr></table></div>
        </text>
        <identifier>
          <use value="official"/>
          <type>
            <coding>
              <system value="https://hl7chile.cl/fhir/ig/clcore/CodeSystem/CSTipoIdentificador"/>
              <code value="01"/>
              <display value="RUN"/>
            </coding>
          </type>
          <value value="5135329-3"/>
        </identifier>
        <name>
          <family value="Perez">
            <extension url="https://hl7chile.cl/fhir/ig/clcore/StructureDefinition/SegundoApellido">
              <valueString value="Perez"/>
            </extension>
          </family>
          <given value="Juan"/>
        </name>
        <birthDate value="1991-05-18"/>
        <qualification>
          <identifier>
            <value value="cert"/>
          </identifier>
          <code>
            <coding>
              <system value="https://interoperabilidad.minsal.cl/fhir/ig/nid/CodeSystem/CSTituloProfesional"/>
              <code value="1"/>
              <display value="MÉDICO CIRUJANO"/>
            </coding>
            <text value="MÉDICO CIRUJANO"/>
          </code>
        </qualification>
      </Practitioner>
    </resource>
    <request>
      <method value="POST"/>
      <url value="Practitioner"/>
      <ifNoneExist value="Practitioner?identifier=5135329-3"/>
    </request>
  </entry>
  <entry>
    <fullUrl value="https://interoperabilidad.minsal.cl/fhir/ig/r2bo/Practitioner/profesional-hospital-anatopatologo"/>
    <resource>
      <Practitioner>
        <id value="profesional-hospital-anatopatologo"/>
        <meta>
          <profile value="https://interoperabilidad.minsal.cl/fhir/ig/nid/StructureDefinition/MINSALPrestadorProfesional"/>
        </meta>
        <text>
          <status value="generated"/><div xmlns="http://www.w3.org/1999/xhtml"><a name="Practitioner_profesional-hospital-anatopatologo"> </a><p class="res-header-id"><b>Generated Narrative: Practitioner profesional-hospital-anatopatologo</b></p><a name="profesional-hospital-anatopatologo"> </a><a name="hcprofesional-hospital-anatopatologo"> </a><div style="display: inline-block; background-color: #d9e0e7; padding: 6px; margin: 4px; border: 1px solid #8da1b4; border-radius: 5px; line-height: 60%"><p style="margin-bottom: 0px"/><p style="margin-bottom: 0px">Profile: <a href="https://interoperabilidad.minsal.cl/fhir/ig/nid/0.4.9/StructureDefinition-MINSALPrestadorProfesional.html">Prestador Profesional</a></p></div><p><b>identifier</b>: RUN/19283789-2 (use: official, )</p><p><b>name</b>: Patricia Gutierrez </p><p><b>gender</b>: Female</p><p><b>birthDate</b>: 1983-11-18</p><blockquote><p><b>qualification</b></p><p><b>identifier</b>: cert</p><p><b>code</b>: <span title="Codes:{https://interoperabilidad.minsal.cl/fhir/ig/nid/CodeSystem/CSTituloProfesional 1}">MÉDICO CIRUJANO</span></p></blockquote><blockquote><p><b>qualification</b></p><p><b>identifier</b>: esp</p><p><b>code</b>: <span title="Codes:{https://interoperabilidad.minsal.cl/fhir/ig/nid/CodeSystem/CSEspecialidadMed 30}">MEDICINA INTERNA</span></p></blockquote><blockquote><p><b>qualification</b></p><p><b>identifier</b>: subesp</p><p><b>code</b>: <span title="Codes:{https://interoperabilidad.minsal.cl/fhir/ig/nid/CodeSystem/CSEspecialidadMed 1}">ANATOMÍA PATOLÓGICA</span></p></blockquote></div>
        </text>
        <identifier>
          <use value="official"/>
          <type>
            <coding>
              <system value="https://hl7chile.cl/fhir/ig/clcore/CodeSystem/CSTipoIdentificador"/>
              <code value="01"/>
              <display value="RUN"/>
            </coding>
          </type>
          <value value="19283789-2"/>
        </identifier>
        <name>
          <family value="Gutierrez"/>
          <given value="Patricia"/>
        </name>
        <gender value="female"/>
        <birthDate value="1983-11-18"/>
        <qualification>
          <identifier>
            <value value="cert"/>
          </identifier>
          <code>
            <coding>
              <system value="https://interoperabilidad.minsal.cl/fhir/ig/nid/CodeSystem/CSTituloProfesional"/>
              <code value="1"/>
              <display value="MÉDICO CIRUJANO"/>
            </coding>
            <text value="MÉDICO CIRUJANO"/>
          </code>
        </qualification>
        <qualification>
          <identifier>
            <value value="esp"/>
          </identifier>
          <code>
            <coding>
              <system value="https://interoperabilidad.minsal.cl/fhir/ig/nid/CodeSystem/CSEspecialidadMed"/>
              <code value="30"/>
              <display value="MEDICINA INTERNA"/>
            </coding>
            <text value="MEDICINA INTERNA"/>
          </code>
        </qualification>
        <qualification>
          <identifier>
            <value value="subesp"/>
          </identifier>
          <code>
            <coding>
              <system value="https://interoperabilidad.minsal.cl/fhir/ig/nid/CodeSystem/CSEspecialidadMed"/>
              <code value="1"/>
              <display value="ANATOMÍA PATOLÓGICA"/>
            </coding>
            <text value="ANATOMÍA PATOLÓGICA"/>
          </code>
        </qualification>
      </Practitioner>
    </resource>
    <request>
      <method value="POST"/>
      <url value="Practitioner"/>
      <ifNoneExist value="Practitioner?identifier=19283789-2"/>
    </request>
  </entry>
  <entry>
    <fullUrl value="https://interoperabilidad.minsal.cl/fhir/ig/r2bo/Organization/hospital-collector"/>
    <resource>
      <Organization>
        <id value="hospital-collector"/>
        <meta>
          <profile value="https://interoperabilidad.minsal.cl/fhir/ig/nid/StructureDefinition/MINSALPrestadorOrganizacional"/>
        </meta>
        <text>
          <status value="generated"/><div xmlns="http://www.w3.org/1999/xhtml"><a name="Organization_hospital-collector"> </a><p class="res-header-id"><b>Generated Narrative: Organization hospital-collector</b></p><a name="hospital-collector"> </a><a name="hchospital-collector"> </a><div style="display: inline-block; background-color: #d9e0e7; padding: 6px; margin: 4px; border: 1px solid #8da1b4; border-radius: 5px; line-height: 60%"><p style="margin-bottom: 0px"/><p style="margin-bottom: 0px">Profile: <a href="https://interoperabilidad.minsal.cl/fhir/ig/nid/0.4.9/StructureDefinition-MINSALPrestadorOrganizacional.html">Prestador Institucional</a></p></div><p><b>identifier</b>: 121109</p><p><b>name</b>: Hospital Dr. Hernán Henríquez Aravena (Temuco)</p></div>
        </text>
        <identifier>
          <value value="121109"/>
        </identifier>
        <name value="Hospital Dr. Hernán Henríquez Aravena (Temuco)"/>
      </Organization>
    </resource>
    <request>
      <method value="POST"/>
      <url value="Organization"/>
      <ifNoneExist value="Organization?identifier=121109"/>
    </request>
  </entry>
  <entry>
    <fullUrl value="https://interoperabilidad.minsal.cl/fhir/ig/r2bo/Specimen/r2bo-specimen-example"/>
    <resource>
      <Specimen>
        <id value="r2bo-specimen-example"/>
        <meta>
          <profile value="https://interoperabilidad.minsal.cl/fhir/ig/r2bo/StructureDefinition/r2bo-muestra-biopsia"/>
        </meta>
        <text>
          <status value="generated"/><div xmlns="http://www.w3.org/1999/xhtml"><a name="Specimen_r2bo-specimen-example"> </a><p class="res-header-id"><b>Generated Narrative: Specimen r2bo-specimen-example</b></p><a name="r2bo-specimen-example"> </a><a name="hcr2bo-specimen-example"> </a><div style="display: inline-block; background-color: #d9e0e7; padding: 6px; margin: 4px; border: 1px solid #8da1b4; border-radius: 5px; line-height: 60%"><p style="margin-bottom: 0px"/><p style="margin-bottom: 0px">Profile: <a href="StructureDefinition-r2bo-muestra-biopsia.html">Perfil de Muestra</a></p></div><p><b>identifier</b>: 110101101</p><p><b>status</b>: Available</p><p><b>type</b>: <span title="Codes:{http://terminology.hl7.org/CodeSystem/v2-0487 TISS}">Tissue</span></p><p><b>subject</b>: <a href="Patient-paciente-requiere-examen.html">Javiera Castilla (official) Female, DoB: 1995-12-12 ( PPN: ACL123456789876 (use: official, ))</a></p><p><b>receivedTime</b>: 2021-06-01 00:00:00+0000</p><h3>Collections</h3><table class="grid"><tr><td style="display: none">-</td><td><b>Collector</b></td><td><b>Collected[x]</b></td><td><b>Method</b></td><td><b>BodySite</b></td></tr><tr><td style="display: none">*</td><td><a href="PractitionerRole-ProfesionalHospital.html">PractitionerRole MÉDICO CIRUJANO</a></td><td>2021-06-01 10:00:00+0000</td><td><span title="Codes:{http://snomed.info/sct 122548005}">Biopsy of breast</span></td><td><span title="Codes:{http://snomed.info/sct 76752008}">Breast</span></td></tr></table><p><b>note</b>: </p><blockquote><div><p>Resección completa de tejido mamario, posible carcinoma</p>
</div></blockquote></div>
        </text>
        <identifier>
          <value value="110101101"/>
        </identifier>
        <status value="available"/>
        <type>
          <coding>
            <system value="http://terminology.hl7.org/CodeSystem/v2-0487"/>
            <code value="TISS"/>
            <display value="Tissue"/>
          </coding>
        </type>
        <subject>
          <reference value="Patient/paciente-requiere-examen"/>
        </subject>
        <receivedTime value="2021-06-01T00:00:00Z"/>
        <collection>
          <collector>
            <reference value="PractitionerRole/ProfesionalHospital"/>
          </collector>
          <collectedDateTime value="2021-06-01T10:00:00Z"/>
          <method>
            <extension url="https://interoperabilidad.minsal.cl/fhir/ig/r2bo/StructureDefinition/r2bo-extension-tipo-procedimientos-biopsias">
              <valueCodeableConcept>
                <coding>
                  <system value="http://snomed.info/sct"/>
                  <code value="8889005"/>
                </coding>
              </valueCodeableConcept>
            </extension>
            <coding>
              <system value="http://snomed.info/sct"/>
              <code value="122548005"/>
            </coding>
          </method>
          <bodySite>
            <extension url="http://hl7.org/fhir/us/mcode/StructureDefinition/mcode-laterality-qualifier">
              <valueCodeableConcept>
                <coding>
                  <system value="http://snomed.info/sct"/>
                  <code value="7771000"/>
                </coding>
              </valueCodeableConcept>
            </extension>
            <coding>
              <system value="http://snomed.info/sct"/>
              <code value="76752008"/>
            </coding>
          </bodySite>
        </collection>
        <note>
          <text value="Resección completa de tejido mamario, posible carcinoma"/>
        </note>
      </Specimen>
    </resource>
    <request>
      <method value="PUT"/>
      <url value="Specimen?identifier=110101101"/>
    </request>
  </entry>
  <entry>
    <fullUrl value="https://interoperabilidad.minsal.cl/fhir/ig/r2bo/Composition/r2bo-documento-biopsia-ex"/>
    <resource>
      <Composition>
        <id value="r2bo-documento-biopsia-ex"/>
        <meta>
          <profile value="https://interoperabilidad.minsal.cl/fhir/ig/r2bo/StructureDefinition/r2bo-composition-biopsia"/>
        </meta>
        <text>
          <status value="extensions"/><div xmlns="http://www.w3.org/1999/xhtml"><a name="Composition_r2bo-documento-biopsia-ex"> </a><p class="res-header-id"><b>Generated Narrative: Composition r2bo-documento-biopsia-ex</b></p><a name="r2bo-documento-biopsia-ex"> </a><a name="hcr2bo-documento-biopsia-ex"> </a><div style="display: inline-block; background-color: #d9e0e7; padding: 6px; margin: 4px; border: 1px solid #8da1b4; border-radius: 5px; line-height: 60%"><p style="margin-bottom: 0px"/><p style="margin-bottom: 0px">Profile: <a href="StructureDefinition-r2bo-composition-biopsia.html">Perfil del Documento de Biopsía</a></p></div><p><b>Extensión De Referencia al Reporte</b>: <a href="DiagnosticReport-r2bo-informe-biopsia-ex.html">Diagnostic Report for 'Breast Pathology biopsy report' for '-&gt;Javiera Castilla (official) Female, DoB: 1995-12-12 ( PPN: ACL123456789876 (use: official, ))'</a></p><p><b>identifier</b>: r2bo-2020-0001</p><p><b>status</b>: Final</p><p><b>type</b>: <span title="Codes:{http://loinc.org 66110-8}">Informe de Biopsia de Mama</span></p><p><b>category</b>: <span title="Codes:{http://terminology.hl7.org/CodeSystem/v2-0074 PAT}">Pathology (gross &amp; histopath, not surgical)</span></p><p><b>date</b>: 2021-08-01 10:00:00-0400</p><p><b>author</b>: <a href="PractitionerRole-r2bo-anatopatologo-hospital.html">PractitionerRole MÉDICO CIRUJANO</a></p><p><b>title</b>: Informe de Biopsia de Mama</p></div>
        </text>
        <extension url="https://interoperabilidad.minsal.cl/fhir/ig/r2bo/StructureDefinition/r2bo-extension-referencia-diagnosticReport">
          <valueReference>
            <reference value="DiagnosticReport/r2bo-informe-biopsia-ex"/>
          </valueReference>
        </extension>
        <identifier>
          <value value="r2bo-2020-0001"/>
        </identifier>
        <status value="final"/>
        <type>
          <coding>
            <system value="http://loinc.org"/>
            <code value="66110-8"/>
          </coding>
          <text value="Informe de Biopsia de Mama"/>
        </type>
        <category>
          <coding>
            <system value="http://terminology.hl7.org/CodeSystem/v2-0074"/>
            <code value="PAT"/>
            <display value="Pathology (gross &amp; histopath, not surgical)"/>
          </coding>
        </category>
        <subject>
          <reference value="Patient/paciente-requiere-examen"/>
        </subject>
        <date value="2021-08-01T10:00:00-04:00"/>
        <author>
          <reference value="PractitionerRole/r2bo-anatopatologo-hospital"/>
        </author>
        <title value="Informe de Biopsia de Mama"/>
        <section>
          <code>
            <coding>
              <system value="http://loinc.org"/>
              <code value="22636-5"/>
            </coding>
            <text value="Solicitud de Biopsia"/>
          </code>
          <text>
            <status value="generated"/><div xmlns="http://www.w3.org/1999/xhtml">Solicitud de Biopsia</div>
          </text>
          <entry>
            <reference value="ServiceRequest/r2bo-solicitud-informe-apa-ej"/>
          </entry>
        </section>
        <section>
          <code>
            <coding>
              <system value="http://loinc.org"/>
              <code value="22633-2"/>
            </coding>
            <text value="Muestra de Biopsia"/>
          </code>
          <text>
            <status value="generated"/><div xmlns="http://www.w3.org/1999/xhtml">Muestra de Biopsia</div>
          </text>
          <entry>
            <reference value="Specimen/r2bo-specimen-example"/>
          </entry>
        </section>
        <section>
          <code>
            <coding>
              <system value="http://loinc.org"/>
              <code value="22634-0"/>
            </coding>
            <text value="Macroscopia de Biopsia"/>
          </code>
          <text>
            <status value="generated"/><div xmlns="http://www.w3.org/1999/xhtml">Macroscopia de Biopsia</div>
          </text>
          <entry>
            <reference value="Observation/r2bo-observacion-macroscopica-ex"/>
          </entry>
        </section>
        <section>
          <code>
            <coding>
              <system value="http://loinc.org"/>
              <code value="22635-7"/>
            </coding>
            <text value="Microscopia de Biopsia"/>
          </code>
          <text>
            <status value="generated"/><div xmlns="http://www.w3.org/1999/xhtml">Microscopia de Biopsia</div>
          </text>
          <entry>
            <reference value="Observation/r2bo-observacion-microscopica-ex"/>
          </entry>
        </section>
        <section>
          <code>
            <coding>
              <system value="http://loinc.org"/>
              <code value="33746-9"/>
            </coding>
            <text value="Hallazgos de Biopsia"/>
          </code>
          <text>
            <status value="generated"/><div xmlns="http://www.w3.org/1999/xhtml">Hallazgos de Biopsia</div>
          </text>
          <entry>
            <reference value="Observation/r2bo-observacion-ganglios-linfaticos-ex"/>
          </entry>
          <entry>
            <reference value="Observation/r2bo-observacion-infiltracion-perineural-ex"/>
          </entry>
          <entry>
            <reference value="Observation/r2bo-observacion-infiltracion-peritumoral-ex"/>
          </entry>
          <entry>
            <reference value="Observation/r2bo-observacion-invasion-linfatica-ex"/>
          </entry>
          <entry>
            <reference value="Observation/r2bo-observacion-invasion-vascular-ex"/>
          </entry>
          <entry>
            <reference value="Observation/r2bo-observacion-margen-quirurgico-ex"/>
          </entry>
          <entry>
            <reference value="Observation/r2bo-observacion-centricidad-ex"/>
          </entry>
          <entry>
            <reference value="Observation/r2bo-observacion-multifocalidad-ex"/>
          </entry>
          <entry>
            <reference value="Observation/r2bo-observacion-porcentaje-necrosis-ex"/>
          </entry>
          <entry>
            <reference value="Observation/r2bo-observacion-post-tratamiento-neoadjuvancia-ex"/>
          </entry>
          <entry>
            <reference value="Observation/r2bo-tamano-tumor-ex"/>
          </entry>
          <entry>
            <reference value="Observation/r2bo-estadificacion-tnm-ex"/>
          </entry>
        </section>
        <section>
          <code>
            <coding>
              <system value="http://loinc.org"/>
              <code value="22637-3"/>
            </coding>
            <text value="Conclusiones de Biopsia"/>
          </code>
          <text>
            <status value="generated"/><div xmlns="http://www.w3.org/1999/xhtml">Conclusiones de Biopsia</div>
          </text>
          <entry>
            <reference value="BodyStructure/r2bo-tumor-ex"/>
          </entry>
        </section>
        <section>
          <code>
            <coding>
              <system value="http://loinc.org"/>
              <code value="22638-1"/>
            </coding>
            <text value="Notas del Informe de Biopsia"/>
          </code>
          <text>
            <status value="generated"/><div xmlns="http://www.w3.org/1999/xhtml"><p>Notas del Informe de Biopsia:</p><p>Carcinoma ductal infiltrante de mama, grado histológico 2, estadio pT2N2M1, con márgenes quirúrgicos positivos y con evidencia de necrosis tumoral</p></div>
          </text>
        </section>
      </Composition>
    </resource>
    <request>
      <method value="POST"/>
      <url value="Composition"/>
    </request>
  </entry>
  <entry>
    <fullUrl value="https://interoperabilidad.minsal.cl/fhir/ig/r2bo/DiagnosticReport/r2bo-informe-biopsia-ex"/>
    <resource>
      <DiagnosticReport>
        <id value="r2bo-informe-biopsia-ex"/>
        <meta>
          <profile value="https://interoperabilidad.minsal.cl/fhir/ig/r2bo/StructureDefinition/r2bo-informe-biopsia"/>
        </meta>
        <text>
          <status value="generated"/><div xmlns="http://www.w3.org/1999/xhtml"><a name="DiagnosticReport_r2bo-informe-biopsia-ex"> </a><p class="res-header-id"><b>Generated Narrative: DiagnosticReport r2bo-informe-biopsia-ex</b></p><a name="r2bo-informe-biopsia-ex"> </a><a name="hcr2bo-informe-biopsia-ex"> </a><div style="display: inline-block; background-color: #d9e0e7; padding: 6px; margin: 4px; border: 1px solid #8da1b4; border-radius: 5px; line-height: 60%"><p style="margin-bottom: 0px"/><p style="margin-bottom: 0px">Profile: <a href="StructureDefinition-r2bo-informe-biopsia.html">Perfil del Reporte de Anatomía Patológica</a></p></div><h2><span title="Codes:{http://loinc.org 66110-8}">Informe de Biopsia de Mama</span> (<span title="Codes:{http://terminology.hl7.org/CodeSystem/v2-0074 PAT}">Pathology (gross &amp; histopath, not surgical)</span>) </h2><table class="grid"><tr><td>Subject</td><td>Javiera Castilla (official) Female, DoB: 1995-12-12 ( PPN: ACL123456789876 (use: official, ))</td></tr><tr><td>Reported</td><td>2021-08-01 10:00:00-0400</td></tr><tr><td>Performer</td><td> <a href="PractitionerRole-r2bo-anatopatologo-hospital.html">PractitionerRole MÉDICO CIRUJANO</a></td></tr><tr><td>Identifier</td><td> r2bo-2020-0001</td></tr></table><p><b>Report Details</b></p><table class="grid"><tr><td><b>Code</b></td><td><b>Value</b></td><td><b>Flags</b></td><td><b>When For</b></td></tr><tr><td><a href="Observation-r2bo-observacion-microscopica-ex.html"><span title="Codes:{http://loinc.org 102034-6}">Pathology report microscopic observation in Specimen</span></a></td><td>Se observa tejido mamario con células epiteliales y estromales, con signos de malignidad con metastasis en ganglios linfáticos</td><td>Final</td><td>2021-06-01 12:00:00-0400</td></tr><tr><td><a href="Observation-r2bo-observacion-macroscopica-ex.html"><span title="Codes:{http://loinc.org 74574-5}">Macroscopic observation [Interpretation] in Specimen Narrative</span></a></td><td>Muestra de biopsia de tejido mamario, de 2x2x1 cm, de color blanco, consistencia firme, bordes irregulares, sin lesiones visibles a simple vista</td><td>Final</td><td>2021-06-01 12:00:00-0400</td></tr><tr><td><a href="Observation-r2bo-estadificacion-tnm-ex.html"><span title="Codes:{http://snomed.info/sct 399588009}">Pathologic TNM stage grouping (observable entity)</span></a></td><td/><td>Final</td><td>2021-06-01 12:00:00-0400</td></tr><tr><td><a href="Observation-r2bo-observacion-ganglios-linfaticos-ex.html"><span title="Codes:{http://loinc.org 92831-7}">Lymph nodes with metastasis [#] in Cancer specimen</span></a></td><td>true</td><td>Final</td><td>2021-06-01 12:00:00-0400</td></tr><tr><td><a href="Observation-r2bo-observacion-infiltracion-perineural-ex.html"><span title="Codes:{http://snomed.info/sct 371513001}">Status of tumour perineural invasion</span></a></td><td><span title="Codes:{http://snomed.info/sct 385001000}">Perineural invasion by tumor not identified (finding)</span></td><td>Final</td><td>2021-06-01 12:00:00-0400</td></tr><tr><td><a href="Observation-r2bo-observacion-infiltracion-peritumoral-ex.html"><span title="Codes:{http://snomed.info/sct 371509008}">Status of peritumoral lymphocyte response (observable entity)</span></a></td><td><span title="Codes:{http://snomed.info/sct 369762001}">Marked peritumoral lymphocytic response</span></td><td>Final</td><td>2021-06-01 12:00:00-0400</td></tr><tr><td><a href="Observation-r2bo-observacion-invasion-linfatica-ex.html"><span title="Codes:{http://loinc.org 33739-4}">Lymphatic.small vessel.invasion [Identifier] in Specimen by CAP cancer protocols</span></a></td><td><span title="Codes:{http://snomed.info/sct 52101004}">Present</span></td><td>Final</td><td>2021-06-01 12:00:00-0400</td></tr><tr><td><a href="Observation-r2bo-observacion-invasion-vascular-ex.html"><span title="Codes:{http://loinc.org 33740-2}">Venous.large vessel.invasion [Identifier] in Specimen by CAP cancer protocols</span></a></td><td><span title="Codes:{http://snomed.info/sct 52101004}">Present</span></td><td>Final</td><td>2021-06-01 12:00:00-0400</td></tr><tr><td><a href="Observation-r2bo-observacion-margen-quirurgico-ex.html"><span title="Codes:{http://snomed.info/sct 396631001}">Surgical margin observable (observable entity)</span></a></td><td/><td>Final</td><td>2021-06-01 12:00:00-0400</td></tr><tr><td><a href="Observation-r2bo-observacion-centricidad-ex.html"><span title="Codes:{http://loinc.org 42030-7}">Multiple tumors reported as single primary Cancer</span></a></td><td>true</td><td>Final</td><td>2021-06-01 12:00:00-0400</td></tr><tr><td><a href="Observation-r2bo-observacion-multifocalidad-ex.html"><span title="Codes:{http://snomed.info/sct 444696007}">Status of specimen involvement by multifocal invasion (observable entity)</span></a></td><td>true</td><td>Final</td><td>2021-06-01 12:00:00-0400</td></tr><tr><td><a href="Observation-r2bo-observacion-porcentaje-necrosis-ex.html"><span title="Codes:{http://snomed.info/sct 405921002}">Percentage of tumour involved by necrosis</span></a></td><td>5 %<span style="background: LightGoldenRodYellow"> (Details: UCUM  code% = '%')</span></td><td>Final</td><td>2021-06-01 12:00:00-0400</td></tr><tr><td><a href="Observation-r2bo-observacion-post-tratamiento-neoadjuvancia-ex.html"><span title="Codes:{http://loinc.org 84891-1}">Tumor response to neoadjuvant therapy</span></a></td><td>El tratamiento entregado no ha sido efectivo para reducir el tamaño del tumor, por lo que se recomienda un nuevo tratamiento.</td><td>Final</td><td>2021-06-01 12:00:00-0400</td></tr><tr><td><a href="Observation-r2bo-tamano-tumor-ex.html"><span title="Codes:{http://loinc.org 21889-1}">Size Tumor</span></a></td><td/><td>Final</td><td>2021-06-01 12:00:00-0400</td></tr></table><p>Carcinoma ductal infiltrante de mama, grado histológico 2, estadio pT2N2M1, con márgenes quirúrgicos positivos y con evidencia de necrosis tumoral</p><p><b>Coded Conclusions:</b></p><ul><li><span title="Codes:{http://snomed.info/sct 82711006}, {http://terminology.hl7.org/CodeSystem/icd-o-3 8500/3}">Carcinoma ductal infiltrante</span></li><li><span title="Codes:{http://snomed.info/sct 76752008}, {http://terminology.hl7.org/CodeSystem/icd-o-3 C50.9}">Mama</span></li></ul></div>
        </text>
        <extension url="https://interoperabilidad.minsal.cl/fhir/ig/r2bo/StructureDefinition/r2bo-extension-referencia-composition">
          <valueReference>
            <reference value="Composition/r2bo-documento-biopsia-ex"/>
          </valueReference>
        </extension>
        <identifier>
          <value value="r2bo-2020-0001"/>
        </identifier>
        <basedOn>
          <reference value="ServiceRequest/r2bo-solicitud-informe-apa-ej"/>
        </basedOn>
        <status value="final"/>
        <category>
          <coding>
            <system value="http://terminology.hl7.org/CodeSystem/v2-0074"/>
            <code value="PAT"/>
            <display value="Pathology (gross &amp; histopath, not surgical)"/>
          </coding>
        </category>
        <code>
          <coding>
            <system value="http://loinc.org"/>
            <code value="66110-8"/>
          </coding>
          <text value="Informe de Biopsia de Mama"/>
        </code>
        <subject>
          <reference value="Patient/paciente-requiere-examen"/>
        </subject>
        <issued value="2021-08-01T10:00:00-04:00"/>
        <performer>
          <reference value="PractitionerRole/r2bo-anatopatologo-hospital"/>
        </performer>
        <specimen>
          <reference value="Specimen/r2bo-specimen-example"/>
        </specimen>
        <result>
          <reference value="Observation/r2bo-observacion-microscopica-ex"/>
        </result>
        <result>
          <reference value="Observation/r2bo-observacion-macroscopica-ex"/>
        </result>
        <result>
          <reference value="Observation/r2bo-estadificacion-tnm-ex"/>
        </result>
        <result>
          <reference value="Observation/r2bo-observacion-ganglios-linfaticos-ex"/>
        </result>
        <result>
          <reference value="Observation/r2bo-observacion-infiltracion-perineural-ex"/>
        </result>
        <result>
          <reference value="Observation/r2bo-observacion-infiltracion-peritumoral-ex"/>
        </result>
        <result>
          <reference value="Observation/r2bo-observacion-invasion-linfatica-ex"/>
        </result>
        <result>
          <reference value="Observation/r2bo-observacion-invasion-vascular-ex"/>
        </result>
        <result>
          <reference value="Observation/r2bo-observacion-margen-quirurgico-ex"/>
        </result>
        <result>
          <reference value="Observation/r2bo-observacion-centricidad-ex"/>
        </result>
        <result>
          <reference value="Observation/r2bo-observacion-multifocalidad-ex"/>
        </result>
        <result>
          <reference value="Observation/r2bo-observacion-porcentaje-necrosis-ex"/>
        </result>
        <result>
          <reference value="Observation/r2bo-observacion-post-tratamiento-neoadjuvancia-ex"/>
        </result>
        <result>
          <reference value="Observation/r2bo-tamano-tumor-ex"/>
        </result>
        <conclusion value="Carcinoma ductal infiltrante de mama, grado histológico 2, estadio pT2N2M1, con márgenes quirúrgicos positivos y con evidencia de necrosis tumoral"/>
        <conclusionCode id="Morfologico">
          <coding>
            <system value="http://snomed.info/sct"/>
            <code value="82711006"/>
          </coding>
          <coding>
            <system value="http://terminology.hl7.org/CodeSystem/icd-o-3"/>
            <code value="8500/3"/>
          </coding>
          <text value="Carcinoma ductal infiltrante"/>
        </conclusionCode>
        <conclusionCode id="Topografico">
          <coding>
            <system value="http://snomed.info/sct"/>
            <code value="76752008"/>
          </coding>
          <coding>
            <system value="http://terminology.hl7.org/CodeSystem/icd-o-3"/>
            <code value="C50.9"/>
          </coding>
          <text value="Mama"/>
        </conclusionCode>
      </DiagnosticReport>
    </resource>
    <request>
      <method value="POST"/>
      <url value="DiagnosticReport"/>
    </request>
  </entry>
  <entry>
    <fullUrl value="https://interoperabilidad.minsal.cl/fhir/ig/r2bo/Observation/r2bo-observacion-microscopica-ex"/>
    <resource>
      <Observation>
        <id value="r2bo-observacion-microscopica-ex"/>
        <meta>
          <profile value="https://interoperabilidad.minsal.cl/fhir/ig/r2bo/StructureDefinition/r2bo-observacion-microscopica"/>
        </meta>
        <text>
          <status value="generated"/><div xmlns="http://www.w3.org/1999/xhtml"><a name="Observation_r2bo-observacion-microscopica-ex"> </a><p class="res-header-id"><b>Generated Narrative: Observation r2bo-observacion-microscopica-ex</b></p><a name="r2bo-observacion-microscopica-ex"> </a><a name="hcr2bo-observacion-microscopica-ex"> </a><div style="display: inline-block; background-color: #d9e0e7; padding: 6px; margin: 4px; border: 1px solid #8da1b4; border-radius: 5px; line-height: 60%"><p style="margin-bottom: 0px"/><p style="margin-bottom: 0px">Profile: <a href="StructureDefinition-r2bo-observacion-microscopica.html">Perfil de Observación Microscópica</a></p></div><p><b>basedOn</b>: <a href="ServiceRequest-r2bo-solicitud-informe-apa-ej.html">ServiceRequest Pathologist report</a></p><p><b>status</b>: Final</p><p><b>category</b>: <span title="Codes:{http://terminology.hl7.org/CodeSystem/observation-category laboratory}">Laboratory</span></p><p><b>code</b>: <span title="Codes:{http://loinc.org 102034-6}">Pathology report microscopic observation in Specimen</span></p><p><b>subject</b>: <a href="Patient-paciente-requiere-examen.html">Javiera Castilla (official) Female, DoB: 1995-12-12 ( PPN: ACL123456789876 (use: official, ))</a></p><p><b>effective</b>: 2021-06-01 12:00:00-0400</p><p><b>performer</b>: <a href="PractitionerRole-r2bo-anatopatologo-hospital.html">PractitionerRole MÉDICO CIRUJANO</a></p><p><b>value</b>: Se observa tejido mamario con células epiteliales y estromales, con signos de malignidad con metastasis en ganglios linfáticos</p><p><b>specimen</b>: <a href="Specimen-r2bo-specimen-example.html">Specimen: identifier = 110101101; status = available; type = Tissue; receivedTime = 2021-06-01 00:00:00+0000; note = Resección completa de tejido mamario, posible carcinoma</a></p></div>
        </text>
        <basedOn>
          <reference value="ServiceRequest/r2bo-solicitud-informe-apa-ej"/>
        </basedOn>
        <status value="final"/>
        <category>
          <coding>
            <system value="http://terminology.hl7.org/CodeSystem/observation-category"/>
            <code value="laboratory"/>
          </coding>
        </category>
        <code>
          <coding>
            <system value="http://loinc.org"/>
            <code value="102034-6"/>
          </coding>
        </code>
        <subject>
          <reference value="Patient/paciente-requiere-examen"/>
        </subject>
        <effectiveDateTime value="2021-06-01T12:00:00-04:00"/>
        <performer>
          <reference value="PractitionerRole/r2bo-anatopatologo-hospital"/>
        </performer>
        <valueString value="Se observa tejido mamario con células epiteliales y estromales, con signos de malignidad con metastasis en ganglios linfáticos"/>
        <specimen>
          <reference value="Specimen/r2bo-specimen-example"/>
        </specimen>
      </Observation>
    </resource>
    <request>
      <method value="POST"/>
      <url value="Observation"/>
    </request>
  </entry>
  <entry>
    <fullUrl value="https://interoperabilidad.minsal.cl/fhir/ig/r2bo/BodyStructure/r2bo-tumor-ex"/>
    <resource>
      <BodyStructure>
        <id value="r2bo-tumor-ex"/>
        <meta>
          <profile value="https://interoperabilidad.minsal.cl/fhir/ig/r2bo/StructureDefinition/r2bo-tumor"/>
        </meta>
        <text>
          <status value="generated"/><div xmlns="http://www.w3.org/1999/xhtml"><a name="BodyStructure_r2bo-tumor-ex"> </a><p class="res-header-id"><b>Generated Narrative: BodyStructure r2bo-tumor-ex</b></p><a name="r2bo-tumor-ex"> </a><a name="hcr2bo-tumor-ex"> </a><div style="display: inline-block; background-color: #d9e0e7; padding: 6px; margin: 4px; border: 1px solid #8da1b4; border-radius: 5px; line-height: 60%"><p style="margin-bottom: 0px"/><p style="margin-bottom: 0px">Profile: <a href="StructureDefinition-r2bo-tumor.html">Perfil de la Morfología y Topología del Tumor</a></p></div><p><b>morphology</b>: <span title="Codes:{http://snomed.info/sct 82711006}, {http://terminology.hl7.org/CodeSystem/icd-o-3 8500/3}">Carcinoma ductal infiltrante</span></p><p><b>location</b>: <span title="Codes:{http://snomed.info/sct 76752008}, {http://terminology.hl7.org/CodeSystem/icd-o-3 C50.9}">Mama</span></p><p><b>patient</b>: <a href="Patient-paciente-requiere-examen.html">Javiera Castilla (official) Female, DoB: 1995-12-12 ( PPN: ACL123456789876 (use: official, ))</a></p></div>
        </text>
        <morphology id="Morfologico">
          <coding>
            <system value="http://snomed.info/sct"/>
            <code value="82711006"/>
          </coding>
          <coding>
            <system value="http://terminology.hl7.org/CodeSystem/icd-o-3"/>
            <code value="8500/3"/>
          </coding>
          <text value="Carcinoma ductal infiltrante"/>
        </morphology>
        <location id="Topografico">
          <coding>
            <system value="http://snomed.info/sct"/>
            <code value="76752008"/>
          </coding>
          <coding>
            <system value="http://terminology.hl7.org/CodeSystem/icd-o-3"/>
            <code value="C50.9"/>
          </coding>
          <text value="Mama"/>
        </location>
        <patient>
          <reference value="Patient/paciente-requiere-examen"/>
        </patient>
      </BodyStructure>
    </resource>
    <request>
      <method value="POST"/>
      <url value="BodyStructure"/>
    </request>
  </entry>
  <entry>
    <fullUrl value="https://interoperabilidad.minsal.cl/fhir/ig/r2bo/Observation/r2bo-observacion-macroscopica-ex"/>
    <resource>
      <Observation>
        <id value="r2bo-observacion-macroscopica-ex"/>
        <meta>
          <profile value="https://interoperabilidad.minsal.cl/fhir/ig/r2bo/StructureDefinition/r2bo-observacion-macroscopica"/>
        </meta>
        <text>
          <status value="generated"/><div xmlns="http://www.w3.org/1999/xhtml"><a name="Observation_r2bo-observacion-macroscopica-ex"> </a><p class="res-header-id"><b>Generated Narrative: Observation r2bo-observacion-macroscopica-ex</b></p><a name="r2bo-observacion-macroscopica-ex"> </a><a name="hcr2bo-observacion-macroscopica-ex"> </a><div style="display: inline-block; background-color: #d9e0e7; padding: 6px; margin: 4px; border: 1px solid #8da1b4; border-radius: 5px; line-height: 60%"><p style="margin-bottom: 0px"/><p style="margin-bottom: 0px">Profile: <a href="StructureDefinition-r2bo-observacion-macroscopica.html">Perfil de Observación Macroscópica</a></p></div><p><b>basedOn</b>: <a href="ServiceRequest-r2bo-solicitud-informe-apa-ej.html">ServiceRequest Pathologist report</a></p><p><b>status</b>: Final</p><p><b>category</b>: <span title="Codes:{http://terminology.hl7.org/CodeSystem/observation-category laboratory}">Laboratory</span></p><p><b>code</b>: <span title="Codes:{http://loinc.org 74574-5}">Macroscopic observation [Interpretation] in Specimen Narrative</span></p><p><b>subject</b>: <a href="Patient-paciente-requiere-examen.html">Javiera Castilla (official) Female, DoB: 1995-12-12 ( PPN: ACL123456789876 (use: official, ))</a></p><p><b>effective</b>: 2021-06-01 12:00:00-0400</p><p><b>performer</b>: <a href="PractitionerRole-r2bo-anatopatologo-hospital.html">PractitionerRole MÉDICO CIRUJANO</a></p><p><b>value</b>: Muestra de biopsia de tejido mamario, de 2x2x1 cm, de color blanco, consistencia firme, bordes irregulares, sin lesiones visibles a simple vista</p><p><b>specimen</b>: <a href="Specimen-r2bo-specimen-example.html">Specimen: identifier = 110101101; status = available; type = Tissue; receivedTime = 2021-06-01 00:00:00+0000; note = Resección completa de tejido mamario, posible carcinoma</a></p></div>
        </text>
        <basedOn>
          <reference value="ServiceRequest/r2bo-solicitud-informe-apa-ej"/>
        </basedOn>
        <status value="final"/>
        <category>
          <coding>
            <system value="http://terminology.hl7.org/CodeSystem/observation-category"/>
            <code value="laboratory"/>
          </coding>
        </category>
        <code>
          <coding>
            <system value="http://loinc.org"/>
            <code value="74574-5"/>
          </coding>
        </code>
        <subject>
          <reference value="Patient/paciente-requiere-examen"/>
        </subject>
        <effectiveDateTime value="2021-06-01T12:00:00-04:00"/>
        <performer>
          <reference value="PractitionerRole/r2bo-anatopatologo-hospital"/>
        </performer>
        <valueString value="Muestra de biopsia de tejido mamario, de 2x2x1 cm, de color blanco, consistencia firme, bordes irregulares, sin lesiones visibles a simple vista"/>
        <specimen>
          <reference value="Specimen/r2bo-specimen-example"/>
        </specimen>
      </Observation>
    </resource>
    <request>
      <method value="POST"/>
      <url value="Observation"/>
    </request>
  </entry>
  <entry>
    <fullUrl value="https://interoperabilidad.minsal.cl/fhir/ig/r2bo/Observation/r2bo-estadificacion-tnm-ex"/>
    <resource>
      <Observation>
        <id value="r2bo-estadificacion-tnm-ex"/>
        <meta>
          <profile value="https://interoperabilidad.minsal.cl/fhir/ig/r2bo/StructureDefinition/r2bo-estadificacion-tnm"/>
        </meta>
        <text>
          <status value="generated"/><div xmlns="http://www.w3.org/1999/xhtml"><a name="Observation_r2bo-estadificacion-tnm-ex"> </a><p class="res-header-id"><b>Generated Narrative: Observation r2bo-estadificacion-tnm-ex</b></p><a name="r2bo-estadificacion-tnm-ex"> </a><a name="hcr2bo-estadificacion-tnm-ex"> </a><div style="display: inline-block; background-color: #d9e0e7; padding: 6px; margin: 4px; border: 1px solid #8da1b4; border-radius: 5px; line-height: 60%"><p style="margin-bottom: 0px"/><p style="margin-bottom: 0px">Profile: <a href="StructureDefinition-r2bo-estadificacion-tnm.html">Perfil de Grupo Estadificación TNM</a></p></div><p><b>basedOn</b>: <a href="ServiceRequest-r2bo-solicitud-informe-apa-ej.html">ServiceRequest Pathologist report</a></p><p><b>status</b>: Final</p><p><b>category</b>: <span title="Codes:{http://terminology.hl7.org/CodeSystem/observation-category laboratory}">Laboratory</span></p><p><b>code</b>: <span title="Codes:{http://snomed.info/sct 399588009}">Pathologic TNM stage grouping (observable entity)</span></p><p><b>subject</b>: <a href="Patient-paciente-requiere-examen.html">Javiera Castilla (official) Female, DoB: 1995-12-12 ( PPN: ACL123456789876 (use: official, ))</a></p><p><b>effective</b>: 2021-06-01 12:00:00-0400</p><p><b>performer</b>: <a href="PractitionerRole-r2bo-anatopatologo-hospital.html">PractitionerRole MÉDICO CIRUJANO</a></p><p><b>specimen</b>: <a href="Specimen-r2bo-specimen-example.html">Specimen: identifier = 110101101; status = available; type = Tissue; receivedTime = 2021-06-01 00:00:00+0000; note = Resección completa de tejido mamario, posible carcinoma</a></p><p><b>hasMember</b>: </p><ul><li><a href="Observation-r2bo-tnm-categoria-tumor-primario-ex.html">Observation pT category (observable entity)</a></li><li><a href="Observation-r2bo-tnm-categoria-nodo-regional-ex.html">Observation Stage of tumour involvement of regional lymph nodes</a></li><li><a href="Observation-r2bo-tnm-categoria-metastasis-distantel-ex.html">Observation Stage of distant metastasis of tumour</a></li></ul></div>
        </text>
        <basedOn>
          <reference value="ServiceRequest/r2bo-solicitud-informe-apa-ej"/>
        </basedOn>
        <status value="final"/>
        <category>
          <coding>
            <system value="http://terminology.hl7.org/CodeSystem/observation-category"/>
            <code value="laboratory"/>
          </coding>
        </category>
        <code>
          <coding>
            <system value="http://snomed.info/sct"/>
            <code value="399588009"/>
          </coding>
        </code>
        <subject>
          <reference value="Patient/paciente-requiere-examen"/>
        </subject>
        <effectiveDateTime value="2021-06-01T12:00:00-04:00"/>
        <performer>
          <reference value="PractitionerRole/r2bo-anatopatologo-hospital"/>
        </performer>
        <specimen>
          <reference value="Specimen/r2bo-specimen-example"/>
        </specimen>
        <hasMember>
          <reference value="Observation/r2bo-tnm-categoria-tumor-primario-ex"/>
        </hasMember>
        <hasMember>
          <reference value="Observation/r2bo-tnm-categoria-nodo-regional-ex"/>
        </hasMember>
        <hasMember>
          <reference value="Observation/r2bo-tnm-categoria-metastasis-distantel-ex"/>
        </hasMember>
      </Observation>
    </resource>
    <request>
      <method value="POST"/>
      <url value="Observation"/>
    </request>
  </entry>
  <entry>
    <fullUrl value="https://interoperabilidad.minsal.cl/fhir/ig/r2bo/Observation/r2bo-tnm-categoria-tumor-primario-ex"/>
    <resource>
      <Observation>
        <id value="r2bo-tnm-categoria-tumor-primario-ex"/>
        <meta>
          <profile value="https://interoperabilidad.minsal.cl/fhir/ig/r2bo/StructureDefinition/r2bo-tnm-categoria-tumor-primario"/>
        </meta>
        <text>
          <status value="generated"/><div xmlns="http://www.w3.org/1999/xhtml"><a name="Observation_r2bo-tnm-categoria-tumor-primario-ex"> </a><p class="res-header-id"><b>Generated Narrative: Observation r2bo-tnm-categoria-tumor-primario-ex</b></p><a name="r2bo-tnm-categoria-tumor-primario-ex"> </a><a name="hcr2bo-tnm-categoria-tumor-primario-ex"> </a><div style="display: inline-block; background-color: #d9e0e7; padding: 6px; margin: 4px; border: 1px solid #8da1b4; border-radius: 5px; line-height: 60%"><p style="margin-bottom: 0px"/><p style="margin-bottom: 0px">Profile: <a href="StructureDefinition-r2bo-tnm-categoria-tumor-primario.html">Perfil de Categoria TNM Tumor Primario</a></p></div><p><b>basedOn</b>: <a href="ServiceRequest-r2bo-solicitud-informe-apa-ej.html">ServiceRequest Pathologist report</a></p><p><b>status</b>: Final</p><p><b>category</b>: <span title="Codes:{http://terminology.hl7.org/CodeSystem/observation-category laboratory}">Laboratory</span></p><p><b>code</b>: <span title="Codes:{http://snomed.info/sct 384625004}">pT category (observable entity)</span></p><p><b>subject</b>: <a href="Patient-paciente-requiere-examen.html">Javiera Castilla (official) Female, DoB: 1995-12-12 ( PPN: ACL123456789876 (use: official, ))</a></p><p><b>effective</b>: 2021-06-01 12:00:00-0400</p><p><b>performer</b>: <a href="PractitionerRole-r2bo-anatopatologo-hospital.html">PractitionerRole MÉDICO CIRUJANO</a></p><p><b>value</b>: <span title="Codes:{http://snomed.info/sct 1229852009}">American Joint Committee on Cancer pT2 (qualifier value)</span></p><p><b>specimen</b>: <a href="Specimen-r2bo-specimen-example.html">Specimen: identifier = 110101101; status = available; type = Tissue; receivedTime = 2021-06-01 00:00:00+0000; note = Resección completa de tejido mamario, posible carcinoma</a></p></div>
        </text>
        <basedOn>
          <reference value="ServiceRequest/r2bo-solicitud-informe-apa-ej"/>
        </basedOn>
        <status value="final"/>
        <category>
          <coding>
            <system value="http://terminology.hl7.org/CodeSystem/observation-category"/>
            <code value="laboratory"/>
          </coding>
        </category>
        <code>
          <coding>
            <system value="http://snomed.info/sct"/>
            <code value="384625004"/>
          </coding>
        </code>
        <subject>
          <reference value="Patient/paciente-requiere-examen"/>
        </subject>
        <effectiveDateTime value="2021-06-01T12:00:00-04:00"/>
        <performer>
          <reference value="PractitionerRole/r2bo-anatopatologo-hospital"/>
        </performer>
        <valueCodeableConcept>
          <coding>
            <system value="http://snomed.info/sct"/>
            <code value="1229852009"/>
          </coding>
        </valueCodeableConcept>
        <specimen>
          <reference value="Specimen/r2bo-specimen-example"/>
        </specimen>
      </Observation>
    </resource>
    <request>
      <method value="POST"/>
      <url value="Observation"/>
    </request>
  </entry>
  <entry>
    <fullUrl value="https://interoperabilidad.minsal.cl/fhir/ig/r2bo/Observation/r2bo-tnm-categoria-nodo-regional-ex"/>
    <resource>
      <Observation>
        <id value="r2bo-tnm-categoria-nodo-regional-ex"/>
        <meta>
          <profile value="https://interoperabilidad.minsal.cl/fhir/ig/r2bo/StructureDefinition/r2bo-tnm-categoria-nodo-regional"/>
        </meta>
        <text>
          <status value="generated"/><div xmlns="http://www.w3.org/1999/xhtml"><a name="Observation_r2bo-tnm-categoria-nodo-regional-ex"> </a><p class="res-header-id"><b>Generated Narrative: Observation r2bo-tnm-categoria-nodo-regional-ex</b></p><a name="r2bo-tnm-categoria-nodo-regional-ex"> </a><a name="hcr2bo-tnm-categoria-nodo-regional-ex"> </a><div style="display: inline-block; background-color: #d9e0e7; padding: 6px; margin: 4px; border: 1px solid #8da1b4; border-radius: 5px; line-height: 60%"><p style="margin-bottom: 0px"/><p style="margin-bottom: 0px">Profile: <a href="StructureDefinition-r2bo-tnm-categoria-nodo-regional.html">Perfil de Categoria TNM Nodos Regional</a></p></div><p><b>basedOn</b>: <a href="ServiceRequest-r2bo-solicitud-informe-apa-ej.html">ServiceRequest Pathologist report</a></p><p><b>status</b>: Final</p><p><b>category</b>: <span title="Codes:{http://terminology.hl7.org/CodeSystem/observation-category laboratory}">Laboratory</span></p><p><b>code</b>: <span title="Codes:{http://snomed.info/sct 371494008}">Stage of tumour involvement of regional lymph nodes</span></p><p><b>subject</b>: <a href="Patient-paciente-requiere-examen.html">Javiera Castilla (official) Female, DoB: 1995-12-12 ( PPN: ACL123456789876 (use: official, ))</a></p><p><b>effective</b>: 2021-06-01 12:00:00-0400</p><p><b>performer</b>: <a href="PractitionerRole-r2bo-anatopatologo-hospital.html">PractitionerRole MÉDICO CIRUJANO</a></p><p><b>value</b>: <span title="Codes:{http://snomed.info/sct 1229957002}">American Joint Committee on Cancer pN2</span></p><p><b>specimen</b>: <a href="Specimen-r2bo-specimen-example.html">Specimen: identifier = 110101101; status = available; type = Tissue; receivedTime = 2021-06-01 00:00:00+0000; note = Resección completa de tejido mamario, posible carcinoma</a></p></div>
        </text>
        <basedOn>
          <reference value="ServiceRequest/r2bo-solicitud-informe-apa-ej"/>
        </basedOn>
        <status value="final"/>
        <category>
          <coding>
            <system value="http://terminology.hl7.org/CodeSystem/observation-category"/>
            <code value="laboratory"/>
          </coding>
        </category>
        <code>
          <coding>
            <system value="http://snomed.info/sct"/>
            <code value="371494008"/>
          </coding>
        </code>
        <subject>
          <reference value="Patient/paciente-requiere-examen"/>
        </subject>
        <effectiveDateTime value="2021-06-01T12:00:00-04:00"/>
        <performer>
          <reference value="PractitionerRole/r2bo-anatopatologo-hospital"/>
        </performer>
        <valueCodeableConcept>
          <coding>
            <system value="http://snomed.info/sct"/>
            <code value="1229957002"/>
          </coding>
        </valueCodeableConcept>
        <specimen>
          <reference value="Specimen/r2bo-specimen-example"/>
        </specimen>
      </Observation>
    </resource>
    <request>
      <method value="POST"/>
      <url value="Observation"/>
    </request>
  </entry>
  <entry>
    <fullUrl value="https://interoperabilidad.minsal.cl/fhir/ig/r2bo/Observation/r2bo-tnm-categoria-metastasis-distantel-ex"/>
    <resource>
      <Observation>
        <id value="r2bo-tnm-categoria-metastasis-distantel-ex"/>
        <meta>
          <profile value="https://interoperabilidad.minsal.cl/fhir/ig/r2bo/StructureDefinition/r2bo-tnm-categoria-metastasis-distante"/>
        </meta>
        <text>
          <status value="generated"/><div xmlns="http://www.w3.org/1999/xhtml"><a name="Observation_r2bo-tnm-categoria-metastasis-distantel-ex"> </a><p class="res-header-id"><b>Generated Narrative: Observation r2bo-tnm-categoria-metastasis-distantel-ex</b></p><a name="r2bo-tnm-categoria-metastasis-distantel-ex"> </a><a name="hcr2bo-tnm-categoria-metastasis-distantel-ex"> </a><div style="display: inline-block; background-color: #d9e0e7; padding: 6px; margin: 4px; border: 1px solid #8da1b4; border-radius: 5px; line-height: 60%"><p style="margin-bottom: 0px"/><p style="margin-bottom: 0px">Profile: <a href="StructureDefinition-r2bo-tnm-categoria-metastasis-distante.html">Perfil de Categoria TNM de Metástasis Distante</a></p></div><p><b>basedOn</b>: <a href="ServiceRequest-r2bo-solicitud-informe-apa-ej.html">ServiceRequest Pathologist report</a></p><p><b>status</b>: Final</p><p><b>category</b>: <span title="Codes:{http://terminology.hl7.org/CodeSystem/observation-category laboratory}">Laboratory</span></p><p><b>code</b>: <span title="Codes:{http://snomed.info/sct 371497001}">Stage of distant metastasis of tumour</span></p><p><b>subject</b>: <a href="Patient-paciente-requiere-examen.html">Javiera Castilla (official) Female, DoB: 1995-12-12 ( PPN: ACL123456789876 (use: official, ))</a></p><p><b>effective</b>: 2021-06-01 12:00:00-0400</p><p><b>performer</b>: <a href="PractitionerRole-r2bo-anatopatologo-hospital.html">PractitionerRole MÉDICO CIRUJANO</a></p><p><b>value</b>: <span title="Codes:{http://snomed.info/sct 1229916009}">American Joint Committee on Cancer pM1 (qualifier value)</span></p><p><b>specimen</b>: <a href="Specimen-r2bo-specimen-example.html">Specimen: identifier = 110101101; status = available; type = Tissue; receivedTime = 2021-06-01 00:00:00+0000; note = Resección completa de tejido mamario, posible carcinoma</a></p></div>
        </text>
        <basedOn>
          <reference value="ServiceRequest/r2bo-solicitud-informe-apa-ej"/>
        </basedOn>
        <status value="final"/>
        <category>
          <coding>
            <system value="http://terminology.hl7.org/CodeSystem/observation-category"/>
            <code value="laboratory"/>
          </coding>
        </category>
        <code>
          <coding>
            <system value="http://snomed.info/sct"/>
            <code value="371497001"/>
          </coding>
        </code>
        <subject>
          <reference value="Patient/paciente-requiere-examen"/>
        </subject>
        <effectiveDateTime value="2021-06-01T12:00:00-04:00"/>
        <performer>
          <reference value="PractitionerRole/r2bo-anatopatologo-hospital"/>
        </performer>
        <valueCodeableConcept>
          <coding>
            <system value="http://snomed.info/sct"/>
            <code value="1229916009"/>
          </coding>
        </valueCodeableConcept>
        <specimen>
          <reference value="Specimen/r2bo-specimen-example"/>
        </specimen>
      </Observation>
    </resource>
    <request>
      <method value="POST"/>
      <url value="Observation"/>
    </request>
  </entry>
  <entry>
    <fullUrl value="https://interoperabilidad.minsal.cl/fhir/ig/r2bo/Observation/r2bo-observacion-infiltracion-perineural-ex"/>
    <resource>
      <Observation>
        <id value="r2bo-observacion-infiltracion-perineural-ex"/>
        <meta>
          <profile value="https://interoperabilidad.minsal.cl/fhir/ig/r2bo/StructureDefinition/r2bo-observacion-infiltracion-perineural"/>
        </meta>
        <text>
          <status value="generated"/><div xmlns="http://www.w3.org/1999/xhtml"><a name="Observation_r2bo-observacion-infiltracion-perineural-ex"> </a><p class="res-header-id"><b>Generated Narrative: Observation r2bo-observacion-infiltracion-perineural-ex</b></p><a name="r2bo-observacion-infiltracion-perineural-ex"> </a><a name="hcr2bo-observacion-infiltracion-perineural-ex"> </a><div style="display: inline-block; background-color: #d9e0e7; padding: 6px; margin: 4px; border: 1px solid #8da1b4; border-radius: 5px; line-height: 60%"><p style="margin-bottom: 0px"/><p style="margin-bottom: 0px">Profile: <a href="StructureDefinition-r2bo-observacion-infiltracion-perineural.html">Perfil de Observación Infiltración Perineural</a></p></div><p><b>basedOn</b>: <a href="ServiceRequest-r2bo-solicitud-informe-apa-ej.html">ServiceRequest Pathologist report</a></p><p><b>status</b>: Final</p><p><b>category</b>: <span title="Codes:{http://terminology.hl7.org/CodeSystem/observation-category laboratory}">Laboratory</span></p><p><b>code</b>: <span title="Codes:{http://snomed.info/sct 371513001}">Status of tumour perineural invasion</span></p><p><b>subject</b>: <a href="Patient-paciente-requiere-examen.html">Javiera Castilla (official) Female, DoB: 1995-12-12 ( PPN: ACL123456789876 (use: official, ))</a></p><p><b>effective</b>: 2021-06-01 12:00:00-0400</p><p><b>performer</b>: <a href="PractitionerRole-r2bo-anatopatologo-hospital.html">PractitionerRole MÉDICO CIRUJANO</a></p><p><b>value</b>: <span title="Codes:{http://snomed.info/sct 385001000}">Perineural invasion by tumor not identified (finding)</span></p><p><b>specimen</b>: <a href="Specimen-r2bo-specimen-example.html">Specimen: identifier = 110101101; status = available; type = Tissue; receivedTime = 2021-06-01 00:00:00+0000; note = Resección completa de tejido mamario, posible carcinoma</a></p></div>
        </text>
        <basedOn>
          <reference value="ServiceRequest/r2bo-solicitud-informe-apa-ej"/>
        </basedOn>
        <status value="final"/>
        <category>
          <coding>
            <system value="http://terminology.hl7.org/CodeSystem/observation-category"/>
            <code value="laboratory"/>
          </coding>
        </category>
        <code>
          <coding>
            <system value="http://snomed.info/sct"/>
            <code value="371513001"/>
          </coding>
        </code>
        <subject>
          <reference value="Patient/paciente-requiere-examen"/>
        </subject>
        <effectiveDateTime value="2021-06-01T12:00:00-04:00"/>
        <performer>
          <reference value="PractitionerRole/r2bo-anatopatologo-hospital"/>
        </performer>
        <valueCodeableConcept>
          <coding>
            <system value="http://snomed.info/sct"/>
            <code value="385001000"/>
          </coding>
        </valueCodeableConcept>
        <specimen>
          <reference value="Specimen/r2bo-specimen-example"/>
        </specimen>
      </Observation>
    </resource>
    <request>
      <method value="POST"/>
      <url value="Observation"/>
    </request>
  </entry>
  <entry>
    <fullUrl value="https://interoperabilidad.minsal.cl/fhir/ig/r2bo/Observation/r2bo-observacion-ganglios-linfaticos-ex"/>
    <resource>
      <Observation>
        <id value="r2bo-observacion-ganglios-linfaticos-ex"/>
        <meta>
          <profile value="https://interoperabilidad.minsal.cl/fhir/ig/r2bo/StructureDefinition/r2bo-observacion-ganglios-linfaticos"/>
        </meta>
        <text>
          <status value="generated"/><div xmlns="http://www.w3.org/1999/xhtml"><a name="Observation_r2bo-observacion-ganglios-linfaticos-ex"> </a><p class="res-header-id"><b>Generated Narrative: Observation r2bo-observacion-ganglios-linfaticos-ex</b></p><a name="r2bo-observacion-ganglios-linfaticos-ex"> </a><a name="hcr2bo-observacion-ganglios-linfaticos-ex"> </a><div style="display: inline-block; background-color: #d9e0e7; padding: 6px; margin: 4px; border: 1px solid #8da1b4; border-radius: 5px; line-height: 60%"><p style="margin-bottom: 0px"/><p style="margin-bottom: 0px">Profile: <a href="StructureDefinition-r2bo-observacion-ganglios-linfaticos.html">Perfil de Observación Ganglios Linfáticos</a></p></div><p><b>basedOn</b>: <a href="ServiceRequest-r2bo-solicitud-informe-apa-ej.html">ServiceRequest Pathologist report</a></p><p><b>status</b>: Final</p><p><b>category</b>: <span title="Codes:{http://terminology.hl7.org/CodeSystem/observation-category laboratory}">Laboratory</span></p><p><b>code</b>: <span title="Codes:{http://loinc.org 92831-7}">Lymph nodes with metastasis [#] in Cancer specimen</span></p><p><b>subject</b>: <a href="Patient-paciente-requiere-examen.html">Javiera Castilla (official) Female, DoB: 1995-12-12 ( PPN: ACL123456789876 (use: official, ))</a></p><p><b>effective</b>: 2021-06-01 12:00:00-0400</p><p><b>performer</b>: <a href="PractitionerRole-r2bo-anatopatologo-hospital.html">PractitionerRole MÉDICO CIRUJANO</a></p><p><b>value</b>: true</p><p><b>specimen</b>: <a href="Specimen-r2bo-specimen-example.html">Specimen: identifier = 110101101; status = available; type = Tissue; receivedTime = 2021-06-01 00:00:00+0000; note = Resección completa de tejido mamario, posible carcinoma</a></p><h3>Components</h3><table class="grid"><tr><td style="display: none">-</td><td><b>Code</b></td><td><b>Value[x]</b></td></tr><tr><td style="display: none">*</td><td><span title="Codes:{http://snomed.info/sct 410680006}">Number (attribute)</span></td><td>4</td></tr></table></div>
        </text>
        <basedOn>
          <reference value="ServiceRequest/r2bo-solicitud-informe-apa-ej"/>
        </basedOn>
        <status value="final"/>
        <category>
          <coding>
            <system value="http://terminology.hl7.org/CodeSystem/observation-category"/>
            <code value="laboratory"/>
          </coding>
        </category>
        <code>
          <coding>
            <system value="http://loinc.org"/>
            <code value="92831-7"/>
          </coding>
        </code>
        <subject>
          <reference value="Patient/paciente-requiere-examen"/>
        </subject>
        <effectiveDateTime value="2021-06-01T12:00:00-04:00"/>
        <performer>
          <reference value="PractitionerRole/r2bo-anatopatologo-hospital"/>
        </performer>
        <valueBoolean value="true"/>
        <specimen>
          <reference value="Specimen/r2bo-specimen-example"/>
        </specimen>
        <component>
          <code>
            <coding>
              <system value="http://snomed.info/sct"/>
              <code value="410680006"/>
            </coding>
          </code>
          <valueInteger value="4"/>
        </component>
      </Observation>
    </resource>
    <request>
      <method value="POST"/>
      <url value="Observation"/>
    </request>
  </entry>
  <entry>
    <fullUrl value="https://interoperabilidad.minsal.cl/fhir/ig/r2bo/Observation/r2bo-observacion-infiltracion-peritumoral-ex"/>
    <resource>
      <Observation>
        <id value="r2bo-observacion-infiltracion-peritumoral-ex"/>
        <meta>
          <profile value="https://interoperabilidad.minsal.cl/fhir/ig/r2bo/StructureDefinition/r2bo-observacion-infiltracion-peritumoral"/>
        </meta>
        <text>
          <status value="generated"/><div xmlns="http://www.w3.org/1999/xhtml"><a name="Observation_r2bo-observacion-infiltracion-peritumoral-ex"> </a><p class="res-header-id"><b>Generated Narrative: Observation r2bo-observacion-infiltracion-peritumoral-ex</b></p><a name="r2bo-observacion-infiltracion-peritumoral-ex"> </a><a name="hcr2bo-observacion-infiltracion-peritumoral-ex"> </a><div style="display: inline-block; background-color: #d9e0e7; padding: 6px; margin: 4px; border: 1px solid #8da1b4; border-radius: 5px; line-height: 60%"><p style="margin-bottom: 0px"/><p style="margin-bottom: 0px">Profile: <a href="StructureDefinition-r2bo-observacion-infiltracion-peritumoral.html">Perfil de Observación Infiltración Peritumoral</a></p></div><p><b>basedOn</b>: <a href="ServiceRequest-r2bo-solicitud-informe-apa-ej.html">ServiceRequest Pathologist report</a></p><p><b>status</b>: Final</p><p><b>category</b>: <span title="Codes:{http://terminology.hl7.org/CodeSystem/observation-category laboratory}">Laboratory</span></p><p><b>code</b>: <span title="Codes:{http://snomed.info/sct 371509008}">Status of peritumoral lymphocyte response (observable entity)</span></p><p><b>subject</b>: <a href="Patient-paciente-requiere-examen.html">Javiera Castilla (official) Female, DoB: 1995-12-12 ( PPN: ACL123456789876 (use: official, ))</a></p><p><b>effective</b>: 2021-06-01 12:00:00-0400</p><p><b>performer</b>: <a href="PractitionerRole-r2bo-anatopatologo-hospital.html">PractitionerRole MÉDICO CIRUJANO</a></p><p><b>value</b>: <span title="Codes:{http://snomed.info/sct 369762001}">Marked peritumoral lymphocytic response</span></p><p><b>specimen</b>: <a href="Specimen-r2bo-specimen-example.html">Specimen: identifier = 110101101; status = available; type = Tissue; receivedTime = 2021-06-01 00:00:00+0000; note = Resección completa de tejido mamario, posible carcinoma</a></p></div>
        </text>
        <basedOn>
          <reference value="ServiceRequest/r2bo-solicitud-informe-apa-ej"/>
        </basedOn>
        <status value="final"/>
        <category>
          <coding>
            <system value="http://terminology.hl7.org/CodeSystem/observation-category"/>
            <code value="laboratory"/>
          </coding>
        </category>
        <code>
          <coding>
            <system value="http://snomed.info/sct"/>
            <code value="371509008"/>
          </coding>
        </code>
        <subject>
          <reference value="Patient/paciente-requiere-examen"/>
        </subject>
        <effectiveDateTime value="2021-06-01T12:00:00-04:00"/>
        <performer>
          <reference value="PractitionerRole/r2bo-anatopatologo-hospital"/>
        </performer>
        <valueCodeableConcept>
          <coding>
            <system value="http://snomed.info/sct"/>
            <code value="369762001"/>
          </coding>
        </valueCodeableConcept>
        <specimen>
          <reference value="Specimen/r2bo-specimen-example"/>
        </specimen>
      </Observation>
    </resource>
    <request>
      <method value="POST"/>
      <url value="Observation"/>
    </request>
  </entry>
  <entry>
    <fullUrl value="https://interoperabilidad.minsal.cl/fhir/ig/r2bo/Observation/r2bo-observacion-invasion-linfatica-ex"/>
    <resource>
      <Observation>
        <id value="r2bo-observacion-invasion-linfatica-ex"/>
        <meta>
          <profile value="https://interoperabilidad.minsal.cl/fhir/ig/r2bo/StructureDefinition/r2bo-observacion-invasion-linfatica"/>
        </meta>
        <text>
          <status value="generated"/><div xmlns="http://www.w3.org/1999/xhtml"><a name="Observation_r2bo-observacion-invasion-linfatica-ex"> </a><p class="res-header-id"><b>Generated Narrative: Observation r2bo-observacion-invasion-linfatica-ex</b></p><a name="r2bo-observacion-invasion-linfatica-ex"> </a><a name="hcr2bo-observacion-invasion-linfatica-ex"> </a><div style="display: inline-block; background-color: #d9e0e7; padding: 6px; margin: 4px; border: 1px solid #8da1b4; border-radius: 5px; line-height: 60%"><p style="margin-bottom: 0px"/><p style="margin-bottom: 0px">Profile: <a href="StructureDefinition-r2bo-observacion-invasion-linfatica.html">Perfil de Observación Invasión Linfatica</a></p></div><p><b>basedOn</b>: <a href="ServiceRequest-r2bo-solicitud-informe-apa-ej.html">ServiceRequest Pathologist report</a></p><p><b>status</b>: Final</p><p><b>category</b>: <span title="Codes:{http://terminology.hl7.org/CodeSystem/observation-category laboratory}">Laboratory</span></p><p><b>code</b>: <span title="Codes:{http://loinc.org 33739-4}">Lymphatic.small vessel.invasion [Identifier] in Specimen by CAP cancer protocols</span></p><p><b>subject</b>: <a href="Patient-paciente-requiere-examen.html">Javiera Castilla (official) Female, DoB: 1995-12-12 ( PPN: ACL123456789876 (use: official, ))</a></p><p><b>effective</b>: 2021-06-01 12:00:00-0400</p><p><b>performer</b>: <a href="PractitionerRole-r2bo-anatopatologo-hospital.html">PractitionerRole MÉDICO CIRUJANO</a></p><p><b>value</b>: <span title="Codes:{http://snomed.info/sct 52101004}">Present</span></p><p><b>specimen</b>: <a href="Specimen-r2bo-specimen-example.html">Specimen: identifier = 110101101; status = available; type = Tissue; receivedTime = 2021-06-01 00:00:00+0000; note = Resección completa de tejido mamario, posible carcinoma</a></p></div>
        </text>
        <basedOn>
          <reference value="ServiceRequest/r2bo-solicitud-informe-apa-ej"/>
        </basedOn>
        <status value="final"/>
        <category>
          <coding>
            <system value="http://terminology.hl7.org/CodeSystem/observation-category"/>
            <code value="laboratory"/>
          </coding>
        </category>
        <code>
          <coding>
            <system value="http://loinc.org"/>
            <code value="33739-4"/>
          </coding>
        </code>
        <subject>
          <reference value="Patient/paciente-requiere-examen"/>
        </subject>
        <effectiveDateTime value="2021-06-01T12:00:00-04:00"/>
        <performer>
          <reference value="PractitionerRole/r2bo-anatopatologo-hospital"/>
        </performer>
        <valueCodeableConcept>
          <coding>
            <system value="http://snomed.info/sct"/>
            <code value="52101004"/>
          </coding>
        </valueCodeableConcept>
        <specimen>
          <reference value="Specimen/r2bo-specimen-example"/>
        </specimen>
      </Observation>
    </resource>
    <request>
      <method value="POST"/>
      <url value="Observation"/>
    </request>
  </entry>
  <entry>
    <fullUrl value="https://interoperabilidad.minsal.cl/fhir/ig/r2bo/Observation/r2bo-observacion-invasion-vascular-ex"/>
    <resource>
      <Observation>
        <id value="r2bo-observacion-invasion-vascular-ex"/>
        <meta>
          <profile value="https://interoperabilidad.minsal.cl/fhir/ig/r2bo/StructureDefinition/r2bo-observacion-invasion-vascular"/>
        </meta>
        <text>
          <status value="generated"/><div xmlns="http://www.w3.org/1999/xhtml"><a name="Observation_r2bo-observacion-invasion-vascular-ex"> </a><p class="res-header-id"><b>Generated Narrative: Observation r2bo-observacion-invasion-vascular-ex</b></p><a name="r2bo-observacion-invasion-vascular-ex"> </a><a name="hcr2bo-observacion-invasion-vascular-ex"> </a><div style="display: inline-block; background-color: #d9e0e7; padding: 6px; margin: 4px; border: 1px solid #8da1b4; border-radius: 5px; line-height: 60%"><p style="margin-bottom: 0px"/><p style="margin-bottom: 0px">Profile: <a href="StructureDefinition-r2bo-observacion-invasion-vascular.html">Perfil de Observación Invasión Vascular</a></p></div><p><b>basedOn</b>: <a href="ServiceRequest-r2bo-solicitud-informe-apa-ej.html">ServiceRequest Pathologist report</a></p><p><b>status</b>: Final</p><p><b>category</b>: <span title="Codes:{http://terminology.hl7.org/CodeSystem/observation-category laboratory}">Laboratory</span></p><p><b>code</b>: <span title="Codes:{http://loinc.org 33740-2}">Venous.large vessel.invasion [Identifier] in Specimen by CAP cancer protocols</span></p><p><b>subject</b>: <a href="Patient-paciente-requiere-examen.html">Javiera Castilla (official) Female, DoB: 1995-12-12 ( PPN: ACL123456789876 (use: official, ))</a></p><p><b>effective</b>: 2021-06-01 12:00:00-0400</p><p><b>performer</b>: <a href="PractitionerRole-r2bo-anatopatologo-hospital.html">PractitionerRole MÉDICO CIRUJANO</a></p><p><b>value</b>: <span title="Codes:{http://snomed.info/sct 52101004}">Present</span></p><p><b>specimen</b>: <a href="Specimen-r2bo-specimen-example.html">Specimen: identifier = 110101101; status = available; type = Tissue; receivedTime = 2021-06-01 00:00:00+0000; note = Resección completa de tejido mamario, posible carcinoma</a></p></div>
        </text>
        <basedOn>
          <reference value="ServiceRequest/r2bo-solicitud-informe-apa-ej"/>
        </basedOn>
        <status value="final"/>
        <category>
          <coding>
            <system value="http://terminology.hl7.org/CodeSystem/observation-category"/>
            <code value="laboratory"/>
          </coding>
        </category>
        <code>
          <coding>
            <system value="http://loinc.org"/>
            <code value="33740-2"/>
          </coding>
        </code>
        <subject>
          <reference value="Patient/paciente-requiere-examen"/>
        </subject>
        <effectiveDateTime value="2021-06-01T12:00:00-04:00"/>
        <performer>
          <reference value="PractitionerRole/r2bo-anatopatologo-hospital"/>
        </performer>
        <valueCodeableConcept>
          <coding>
            <system value="http://snomed.info/sct"/>
            <code value="52101004"/>
          </coding>
        </valueCodeableConcept>
        <specimen>
          <reference value="Specimen/r2bo-specimen-example"/>
        </specimen>
      </Observation>
    </resource>
    <request>
      <method value="POST"/>
      <url value="Observation"/>
    </request>
  </entry>
  <entry>
    <fullUrl value="https://interoperabilidad.minsal.cl/fhir/ig/r2bo/Observation/r2bo-observacion-margen-quirurgico-ex"/>
    <resource>
      <Observation>
        <id value="r2bo-observacion-margen-quirurgico-ex"/>
        <meta>
          <profile value="https://interoperabilidad.minsal.cl/fhir/ig/r2bo/StructureDefinition/r2bo-observacion-margen-quirurgico"/>
        </meta>
        <text>
          <status value="generated"/><div xmlns="http://www.w3.org/1999/xhtml"><a name="Observation_r2bo-observacion-margen-quirurgico-ex"> </a><p class="res-header-id"><b>Generated Narrative: Observation r2bo-observacion-margen-quirurgico-ex</b></p><a name="r2bo-observacion-margen-quirurgico-ex"> </a><a name="hcr2bo-observacion-margen-quirurgico-ex"> </a><div style="display: inline-block; background-color: #d9e0e7; padding: 6px; margin: 4px; border: 1px solid #8da1b4; border-radius: 5px; line-height: 60%"><p style="margin-bottom: 0px"/><p style="margin-bottom: 0px">Profile: <a href="StructureDefinition-r2bo-observacion-margen-quirurgico.html">Perfil de Observación Margen Quirúrgico</a></p></div><p><b>basedOn</b>: <a href="ServiceRequest-r2bo-solicitud-informe-apa-ej.html">ServiceRequest Pathologist report</a></p><p><b>status</b>: Final</p><p><b>category</b>: <span title="Codes:{http://terminology.hl7.org/CodeSystem/observation-category laboratory}">Laboratory</span></p><p><b>code</b>: <span title="Codes:{http://snomed.info/sct 396631001}">Surgical margin observable (observable entity)</span></p><p><b>subject</b>: <a href="Patient-paciente-requiere-examen.html">Javiera Castilla (official) Female, DoB: 1995-12-12 ( PPN: ACL123456789876 (use: official, ))</a></p><p><b>effective</b>: 2021-06-01 12:00:00-0400</p><p><b>performer</b>: <a href="PractitionerRole-r2bo-anatopatologo-hospital.html">PractitionerRole MÉDICO CIRUJANO</a></p><p><b>specimen</b>: <a href="Specimen-r2bo-specimen-example.html">Specimen: identifier = 110101101; status = available; type = Tissue; receivedTime = 2021-06-01 00:00:00+0000; note = Resección completa de tejido mamario, posible carcinoma</a></p><blockquote><p><b>component</b></p><p><b>code</b>: <span title="Codes:{http://snomed.info/sct 396324006}">Surgical margin site involved by tumour</span></p><p><b>value</b>: <span title="Codes:{http://snomed.info/sct 10828004}">Positive</span></p></blockquote><blockquote><p><b>component</b></p><p><b>code</b>: <span title="Codes:{http://loinc.org 33737-8}">Distance of tumor from closest margin</span></p><p><b>value</b>: 1.5 Millimeter<span style="background: LightGoldenRodYellow"> (Details: UCUM  codemm = 'mm')</span></p></blockquote></div>
        </text>
        <basedOn>
          <reference value="ServiceRequest/r2bo-solicitud-informe-apa-ej"/>
        </basedOn>
        <status value="final"/>
        <category>
          <coding>
            <system value="http://terminology.hl7.org/CodeSystem/observation-category"/>
            <code value="laboratory"/>
          </coding>
        </category>
        <code>
          <coding>
            <system value="http://snomed.info/sct"/>
            <code value="396631001"/>
          </coding>
        </code>
        <subject>
          <reference value="Patient/paciente-requiere-examen"/>
        </subject>
        <effectiveDateTime value="2021-06-01T12:00:00-04:00"/>
        <performer>
          <reference value="PractitionerRole/r2bo-anatopatologo-hospital"/>
        </performer>
        <specimen>
          <reference value="Specimen/r2bo-specimen-example"/>
        </specimen>
        <component>
          <code>
            <coding>
              <system value="http://snomed.info/sct"/>
              <code value="396324006"/>
            </coding>
          </code>
          <valueCodeableConcept>
            <coding>
              <system value="http://snomed.info/sct"/>
              <code value="10828004"/>
            </coding>
          </valueCodeableConcept>
        </component>
        <component>
          <code>
            <coding>
              <system value="http://loinc.org"/>
              <code value="33737-8"/>
            </coding>
          </code>
          <valueQuantity>
            <value value="1.5"/>
            <unit value="Millimeter"/>
            <system value="http://unitsofmeasure.org"/>
            <code value="mm"/>
          </valueQuantity>
        </component>
      </Observation>
    </resource>
    <request>
      <method value="POST"/>
      <url value="Observation"/>
    </request>
  </entry>
  <entry>
    <fullUrl value="https://interoperabilidad.minsal.cl/fhir/ig/r2bo/Observation/r2bo-observacion-centricidad-ex"/>
    <resource>
      <Observation>
        <id value="r2bo-observacion-centricidad-ex"/>
        <meta>
          <profile value="https://interoperabilidad.minsal.cl/fhir/ig/r2bo/StructureDefinition/r2bo-observacion-multicentricidad"/>
        </meta>
        <text>
          <status value="generated"/><div xmlns="http://www.w3.org/1999/xhtml"><a name="Observation_r2bo-observacion-centricidad-ex"> </a><p class="res-header-id"><b>Generated Narrative: Observation r2bo-observacion-centricidad-ex</b></p><a name="r2bo-observacion-centricidad-ex"> </a><a name="hcr2bo-observacion-centricidad-ex"> </a><div style="display: inline-block; background-color: #d9e0e7; padding: 6px; margin: 4px; border: 1px solid #8da1b4; border-radius: 5px; line-height: 60%"><p style="margin-bottom: 0px"/><p style="margin-bottom: 0px">Profile: <a href="StructureDefinition-r2bo-observacion-multicentricidad.html">Perfil de Observación Multicentricidad</a></p></div><p><b>basedOn</b>: <a href="ServiceRequest-r2bo-solicitud-informe-apa-ej.html">ServiceRequest Pathologist report</a></p><p><b>status</b>: Final</p><p><b>category</b>: <span title="Codes:{http://terminology.hl7.org/CodeSystem/observation-category laboratory}">Laboratory</span></p><p><b>code</b>: <span title="Codes:{http://loinc.org 42030-7}">Multiple tumors reported as single primary Cancer</span></p><p><b>subject</b>: <a href="Patient-paciente-requiere-examen.html">Javiera Castilla (official) Female, DoB: 1995-12-12 ( PPN: ACL123456789876 (use: official, ))</a></p><p><b>effective</b>: 2021-06-01 12:00:00-0400</p><p><b>performer</b>: <a href="PractitionerRole-r2bo-anatopatologo-hospital.html">PractitionerRole MÉDICO CIRUJANO</a></p><p><b>value</b>: true</p><p><b>specimen</b>: <a href="Specimen-r2bo-specimen-example.html">Specimen: identifier = 110101101; status = available; type = Tissue; receivedTime = 2021-06-01 00:00:00+0000; note = Resección completa de tejido mamario, posible carcinoma</a></p><h3>Components</h3><table class="grid"><tr><td style="display: none">-</td><td><b>Code</b></td><td><b>Value[x]</b></td></tr><tr><td style="display: none">*</td><td><span title="Codes:{http://snomed.info/sct 410680006}">Number (attribute)</span></td><td>2</td></tr></table></div>
        </text>
        <basedOn>
          <reference value="ServiceRequest/r2bo-solicitud-informe-apa-ej"/>
        </basedOn>
        <status value="final"/>
        <category>
          <coding>
            <system value="http://terminology.hl7.org/CodeSystem/observation-category"/>
            <code value="laboratory"/>
          </coding>
        </category>
        <code>
          <coding>
            <system value="http://loinc.org"/>
            <code value="42030-7"/>
          </coding>
        </code>
        <subject>
          <reference value="Patient/paciente-requiere-examen"/>
        </subject>
        <effectiveDateTime value="2021-06-01T12:00:00-04:00"/>
        <performer>
          <reference value="PractitionerRole/r2bo-anatopatologo-hospital"/>
        </performer>
        <valueBoolean value="true"/>
        <specimen>
          <reference value="Specimen/r2bo-specimen-example"/>
        </specimen>
        <component>
          <code>
            <coding>
              <system value="http://snomed.info/sct"/>
              <code value="410680006"/>
            </coding>
          </code>
          <valueInteger value="2"/>
        </component>
      </Observation>
    </resource>
    <request>
      <method value="POST"/>
      <url value="Observation"/>
    </request>
  </entry>
  <entry>
    <fullUrl value="https://interoperabilidad.minsal.cl/fhir/ig/r2bo/Observation/r2bo-observacion-multifocalidad-ex"/>
    <resource>
      <Observation>
        <id value="r2bo-observacion-multifocalidad-ex"/>
        <meta>
          <profile value="https://interoperabilidad.minsal.cl/fhir/ig/r2bo/StructureDefinition/r2bo-observacion-focalidad"/>
        </meta>
        <text>
          <status value="generated"/><div xmlns="http://www.w3.org/1999/xhtml"><a name="Observation_r2bo-observacion-multifocalidad-ex"> </a><p class="res-header-id"><b>Generated Narrative: Observation r2bo-observacion-multifocalidad-ex</b></p><a name="r2bo-observacion-multifocalidad-ex"> </a><a name="hcr2bo-observacion-multifocalidad-ex"> </a><div style="display: inline-block; background-color: #d9e0e7; padding: 6px; margin: 4px; border: 1px solid #8da1b4; border-radius: 5px; line-height: 60%"><p style="margin-bottom: 0px"/><p style="margin-bottom: 0px">Profile: <a href="StructureDefinition-r2bo-observacion-focalidad.html">Perfil de Observación Focalidad</a></p></div><p><b>basedOn</b>: <a href="ServiceRequest-r2bo-solicitud-informe-apa-ej.html">ServiceRequest Pathologist report</a></p><p><b>status</b>: Final</p><p><b>category</b>: <span title="Codes:{http://terminology.hl7.org/CodeSystem/observation-category laboratory}">Laboratory</span></p><p><b>code</b>: <span title="Codes:{http://snomed.info/sct 444696007}">Status of specimen involvement by multifocal invasion (observable entity)</span></p><p><b>subject</b>: <a href="Patient-paciente-requiere-examen.html">Javiera Castilla (official) Female, DoB: 1995-12-12 ( PPN: ACL123456789876 (use: official, ))</a></p><p><b>effective</b>: 2021-06-01 12:00:00-0400</p><p><b>performer</b>: <a href="PractitionerRole-r2bo-anatopatologo-hospital.html">PractitionerRole MÉDICO CIRUJANO</a></p><p><b>value</b>: true</p><p><b>specimen</b>: <a href="Specimen-r2bo-specimen-example.html">Specimen: identifier = 110101101; status = available; type = Tissue; receivedTime = 2021-06-01 00:00:00+0000; note = Resección completa de tejido mamario, posible carcinoma</a></p><h3>Components</h3><table class="grid"><tr><td style="display: none">-</td><td><b>Code</b></td><td><b>Value[x]</b></td></tr><tr><td style="display: none">*</td><td><span title="Codes:{http://snomed.info/sct 410680006}">Number (attribute)</span></td><td>2</td></tr></table></div>
        </text>
        <basedOn>
          <reference value="ServiceRequest/r2bo-solicitud-informe-apa-ej"/>
        </basedOn>
        <status value="final"/>
        <category>
          <coding>
            <system value="http://terminology.hl7.org/CodeSystem/observation-category"/>
            <code value="laboratory"/>
          </coding>
        </category>
        <code>
          <coding>
            <system value="http://snomed.info/sct"/>
            <code value="444696007"/>
          </coding>
        </code>
        <subject>
          <reference value="Patient/paciente-requiere-examen"/>
        </subject>
        <effectiveDateTime value="2021-06-01T12:00:00-04:00"/>
        <performer>
          <reference value="PractitionerRole/r2bo-anatopatologo-hospital"/>
        </performer>
        <valueBoolean value="true"/>
        <specimen>
          <reference value="Specimen/r2bo-specimen-example"/>
        </specimen>
        <component>
          <code>
            <coding>
              <system value="http://snomed.info/sct"/>
              <code value="410680006"/>
            </coding>
          </code>
          <valueInteger value="2"/>
        </component>
      </Observation>
    </resource>
    <request>
      <method value="POST"/>
      <url value="Observation"/>
    </request>
  </entry>
  <entry>
    <fullUrl value="https://interoperabilidad.minsal.cl/fhir/ig/r2bo/Observation/r2bo-observacion-porcentaje-necrosis-ex"/>
    <resource>
      <Observation>
        <id value="r2bo-observacion-porcentaje-necrosis-ex"/>
        <meta>
          <profile value="https://interoperabilidad.minsal.cl/fhir/ig/r2bo/StructureDefinition/r2bo-observacion-porcentaje-necrosis"/>
        </meta>
        <text>
          <status value="generated"/><div xmlns="http://www.w3.org/1999/xhtml"><a name="Observation_r2bo-observacion-porcentaje-necrosis-ex"> </a><p class="res-header-id"><b>Generated Narrative: Observation r2bo-observacion-porcentaje-necrosis-ex</b></p><a name="r2bo-observacion-porcentaje-necrosis-ex"> </a><a name="hcr2bo-observacion-porcentaje-necrosis-ex"> </a><div style="display: inline-block; background-color: #d9e0e7; padding: 6px; margin: 4px; border: 1px solid #8da1b4; border-radius: 5px; line-height: 60%"><p style="margin-bottom: 0px"/><p style="margin-bottom: 0px">Profile: <a href="StructureDefinition-r2bo-observacion-porcentaje-necrosis.html">Perfil de Observación Porcentaje Necrosis</a></p></div><p><b>basedOn</b>: <a href="ServiceRequest-r2bo-solicitud-informe-apa-ej.html">ServiceRequest Pathologist report</a></p><p><b>status</b>: Final</p><p><b>category</b>: <span title="Codes:{http://terminology.hl7.org/CodeSystem/observation-category laboratory}">Laboratory</span></p><p><b>code</b>: <span title="Codes:{http://snomed.info/sct 405921002}">Percentage of tumour involved by necrosis</span></p><p><b>subject</b>: <a href="Patient-paciente-requiere-examen.html">Javiera Castilla (official) Female, DoB: 1995-12-12 ( PPN: ACL123456789876 (use: official, ))</a></p><p><b>effective</b>: 2021-06-01 12:00:00-0400</p><p><b>performer</b>: <a href="PractitionerRole-r2bo-anatopatologo-hospital.html">PractitionerRole MÉDICO CIRUJANO</a></p><p><b>value</b>: 5 %<span style="background: LightGoldenRodYellow"> (Details: UCUM  code% = '%')</span></p><p><b>specimen</b>: <a href="Specimen-r2bo-specimen-example.html">Specimen: identifier = 110101101; status = available; type = Tissue; receivedTime = 2021-06-01 00:00:00+0000; note = Resección completa de tejido mamario, posible carcinoma</a></p></div>
        </text>
        <basedOn>
          <reference value="ServiceRequest/r2bo-solicitud-informe-apa-ej"/>
        </basedOn>
        <status value="final"/>
        <category>
          <coding>
            <system value="http://terminology.hl7.org/CodeSystem/observation-category"/>
            <code value="laboratory"/>
          </coding>
        </category>
        <code>
          <coding>
            <system value="http://snomed.info/sct"/>
            <code value="405921002"/>
          </coding>
        </code>
        <subject>
          <reference value="Patient/paciente-requiere-examen"/>
        </subject>
        <effectiveDateTime value="2021-06-01T12:00:00-04:00"/>
        <performer>
          <reference value="PractitionerRole/r2bo-anatopatologo-hospital"/>
        </performer>
        <valueQuantity>
          <value value="5"/>
          <unit value="%"/>
          <system value="http://unitsofmeasure.org"/>
          <code value="%"/>
        </valueQuantity>
        <specimen>
          <reference value="Specimen/r2bo-specimen-example"/>
        </specimen>
      </Observation>
    </resource>
    <request>
      <method value="POST"/>
      <url value="Observation"/>
    </request>
  </entry>
  <entry>
    <fullUrl value="https://interoperabilidad.minsal.cl/fhir/ig/r2bo/Observation/r2bo-observacion-post-tratamiento-neoadjuvancia-ex"/>
    <resource>
      <Observation>
        <id value="r2bo-observacion-post-tratamiento-neoadjuvancia-ex"/>
        <meta>
          <profile value="https://interoperabilidad.minsal.cl/fhir/ig/r2bo/StructureDefinition/r2bo-observacion-post-tratamiento-neoadjuvancia"/>
        </meta>
        <text>
          <status value="generated"/><div xmlns="http://www.w3.org/1999/xhtml"><a name="Observation_r2bo-observacion-post-tratamiento-neoadjuvancia-ex"> </a><p class="res-header-id"><b>Generated Narrative: Observation r2bo-observacion-post-tratamiento-neoadjuvancia-ex</b></p><a name="r2bo-observacion-post-tratamiento-neoadjuvancia-ex"> </a><a name="hcr2bo-observacion-post-tratamiento-neoadjuvancia-ex"> </a><div style="display: inline-block; background-color: #d9e0e7; padding: 6px; margin: 4px; border: 1px solid #8da1b4; border-radius: 5px; line-height: 60%"><p style="margin-bottom: 0px"/><p style="margin-bottom: 0px">Profile: <a href="StructureDefinition-r2bo-observacion-post-tratamiento-neoadjuvancia.html">Perfil de Observación Evaluación Post Neoadyuvancia</a></p></div><p><b>basedOn</b>: <a href="ServiceRequest-r2bo-solicitud-informe-apa-ej.html">ServiceRequest Pathologist report</a></p><p><b>status</b>: Final</p><p><b>category</b>: <span title="Codes:{http://terminology.hl7.org/CodeSystem/observation-category laboratory}">Laboratory</span></p><p><b>code</b>: <span title="Codes:{http://loinc.org 84891-1}">Tumor response to neoadjuvant therapy</span></p><p><b>subject</b>: <a href="Patient-paciente-requiere-examen.html">Javiera Castilla (official) Female, DoB: 1995-12-12 ( PPN: ACL123456789876 (use: official, ))</a></p><p><b>effective</b>: 2021-06-01 12:00:00-0400</p><p><b>performer</b>: <a href="PractitionerRole-r2bo-anatopatologo-hospital.html">PractitionerRole MÉDICO CIRUJANO</a></p><p><b>value</b>: El tratamiento entregado no ha sido efectivo para reducir el tamaño del tumor, por lo que se recomienda un nuevo tratamiento.</p><p><b>specimen</b>: <a href="Specimen-r2bo-specimen-example.html">Specimen: identifier = 110101101; status = available; type = Tissue; receivedTime = 2021-06-01 00:00:00+0000; note = Resección completa de tejido mamario, posible carcinoma</a></p></div>
        </text>
        <basedOn>
          <reference value="ServiceRequest/r2bo-solicitud-informe-apa-ej"/>
        </basedOn>
        <status value="final"/>
        <category>
          <coding>
            <system value="http://terminology.hl7.org/CodeSystem/observation-category"/>
            <code value="laboratory"/>
          </coding>
        </category>
        <code>
          <coding>
            <system value="http://loinc.org"/>
            <code value="84891-1"/>
          </coding>
        </code>
        <subject>
          <reference value="Patient/paciente-requiere-examen"/>
        </subject>
        <effectiveDateTime value="2021-06-01T12:00:00-04:00"/>
        <performer>
          <reference value="PractitionerRole/r2bo-anatopatologo-hospital"/>
        </performer>
        <valueString value="El tratamiento entregado no ha sido efectivo para reducir el tamaño del tumor, por lo que se recomienda un nuevo tratamiento."/>
        <specimen>
          <reference value="Specimen/r2bo-specimen-example"/>
        </specimen>
      </Observation>
    </resource>
    <request>
      <method value="POST"/>
      <url value="Observation"/>
    </request>
  </entry>
  <entry>
    <fullUrl value="https://interoperabilidad.minsal.cl/fhir/ig/r2bo/Observation/r2bo-tamano-tumor-ex"/>
    <resource>
      <Observation>
        <id value="r2bo-tamano-tumor-ex"/>
        <meta>
          <profile value="https://interoperabilidad.minsal.cl/fhir/ig/r2bo/StructureDefinition/r2bo-tamano-tumor"/>
        </meta>
        <text>
          <status value="generated"/><div xmlns="http://www.w3.org/1999/xhtml"><a name="Observation_r2bo-tamano-tumor-ex"> </a><p class="res-header-id"><b>Generated Narrative: Observation r2bo-tamano-tumor-ex</b></p><a name="r2bo-tamano-tumor-ex"> </a><a name="hcr2bo-tamano-tumor-ex"> </a><div style="display: inline-block; background-color: #d9e0e7; padding: 6px; margin: 4px; border: 1px solid #8da1b4; border-radius: 5px; line-height: 60%"><p style="margin-bottom: 0px"/><p style="margin-bottom: 0px">Profile: <a href="StructureDefinition-r2bo-tamano-tumor.html">Perfil de Tamaño del Tumor</a></p></div><p><b>basedOn</b>: <a href="ServiceRequest-r2bo-solicitud-informe-apa-ej.html">ServiceRequest Pathologist report</a></p><p><b>status</b>: Final</p><p><b>category</b>: <span title="Codes:{http://terminology.hl7.org/CodeSystem/observation-category laboratory}">Laboratory</span></p><p><b>code</b>: <span title="Codes:{http://loinc.org 21889-1}">Size Tumor</span></p><p><b>subject</b>: <a href="Patient-paciente-requiere-examen.html">Javiera Castilla (official) Female, DoB: 1995-12-12 ( PPN: ACL123456789876 (use: official, ))</a></p><p><b>effective</b>: 2021-06-01 12:00:00-0400</p><p><b>performer</b>: <a href="PractitionerRole-r2bo-anatopatologo-hospital.html">PractitionerRole MÉDICO CIRUJANO</a></p><p><b>specimen</b>: <a href="Specimen-r2bo-specimen-example.html">Specimen: identifier = 110101101; status = available; type = Tissue; receivedTime = 2021-06-01 00:00:00+0000; note = Resección completa de tejido mamario, posible carcinoma</a></p><blockquote><p><b>component</b></p><p><b>code</b>: <span title="Codes:{http://loinc.org 33728-7}">Size.maximum dimension in Tumor</span></p><p><b>value</b>: 1.5 cm<span style="background: LightGoldenRodYellow"> (Details: UCUM  codecm = 'cm')</span></p></blockquote><blockquote><p><b>component</b></p><p><b>code</b>: <span title="Codes:{http://loinc.org 33729-5}">Size additional dimension in Tumor</span></p><p><b>value</b>: 1.2 cm<span style="background: LightGoldenRodYellow"> (Details: UCUM  codecm = 'cm')</span></p></blockquote><blockquote><p><b>component</b></p><p><b>code</b>: <span title="Codes:{http://loinc.org 33729-5}">Size additional dimension in Tumor</span></p><p><b>value</b>: 0.7 cm<span style="background: LightGoldenRodYellow"> (Details: UCUM  codecm = 'cm')</span></p></blockquote></div>
        </text>
        <basedOn>
          <reference value="ServiceRequest/r2bo-solicitud-informe-apa-ej"/>
        </basedOn>
        <status value="final"/>
        <category>
          <coding>
            <system value="http://terminology.hl7.org/CodeSystem/observation-category"/>
            <code value="laboratory"/>
          </coding>
        </category>
        <code>
          <coding>
            <system value="http://loinc.org"/>
            <code value="21889-1"/>
          </coding>
        </code>
        <subject>
          <reference value="Patient/paciente-requiere-examen"/>
        </subject>
        <effectiveDateTime value="2021-06-01T12:00:00-04:00"/>
        <performer>
          <reference value="PractitionerRole/r2bo-anatopatologo-hospital"/>
        </performer>
        <specimen>
          <reference value="Specimen/r2bo-specimen-example"/>
        </specimen>
        <component>
          <code>
            <coding>
              <system value="http://loinc.org"/>
              <code value="33728-7"/>
            </coding>
          </code>
          <valueQuantity>
            <value value="1.5"/>
            <unit value="cm"/>
            <system value="http://unitsofmeasure.org"/>
            <code value="cm"/>
          </valueQuantity>
        </component>
        <component>
          <code>
            <coding>
              <system value="http://loinc.org"/>
              <code value="33729-5"/>
            </coding>
          </code>
          <valueQuantity>
            <value value="1.2"/>
            <unit value="cm"/>
            <system value="http://unitsofmeasure.org"/>
            <code value="cm"/>
          </valueQuantity>
        </component>
        <component>
          <code>
            <coding>
              <system value="http://loinc.org"/>
              <code value="33729-5"/>
            </coding>
          </code>
          <valueQuantity>
            <value value="0.7"/>
            <unit value="cm"/>
            <system value="http://unitsofmeasure.org"/>
            <code value="cm"/>
          </valueQuantity>
        </component>
      </Observation>
    </resource>
    <request>
      <method value="POST"/>
      <url value="Observation"/>
    </request>
  </entry>
</Bundle>